participant_id,fsm_number,fsm_type,test_order,test1,test2,test3,trial_number,test_condition,trial_type,state_1,response_1,state_2,response_2,state_3,option_1,option_2,correctResponse,response,response_correct,response_time,option_1_p_mm,option_2_p_mm,R_i_mm_eps_0.1,response_correct_mm,option_1_p_mm_an,option_2_p_mm_an,R_i_mm_an_eps_0.1,response_correct_mm_an
1,21.0,easy,CEP,control,explanation,prediction,1,explanation,visible,0.0,a,2.0,a,0.0,,,2,1,0.0,5658.98699998809,0.538142208934175,5.2594208225176764e-05,1.8528651667113845,0.0,,,,
1,21.0,easy,CEP,control,explanation,prediction,1,explanation,hidden,3.0,b,,a,0.0,,,2,2,1.0,3844.0739999642246,0.599076541916271,0.0003325629049567399,1.9412699409018936,0.0,0.9985029940119762,0.00016655562958027982,2.39486926058346,0.0
1,21.0,easy,CEP,control,explanation,prediction,2,explanation,visible,3.0,a,1.0,a,0.0,,,1,2,0.0,1434.9349999523256,0.00016630629480545906,0.5979282311202831,1.9412844091531045,0.0,,,,
1,21.0,easy,CEP,control,explanation,prediction,2,explanation,hidden,0.0,a,,a,0.0,,,2,2,1.0,1484.960000000021,0.5383418876385674,0.0002187036824719523,1.851519179128185,0.0,0.5383728083666564,5.262050094716902e-05,1.8532261992175925,0.0
1,21.0,easy,CEP,control,explanation,prediction,3,explanation,visible,0.0,b,2.0,b,2.0,,,2,2,1.0,5212.908999976178,0.9993425504865837,7.68664774938116e-05,2.3965290432363533,0.0,,,,
1,21.0,easy,CEP,control,explanation,prediction,3,explanation,hidden,3.0,a,,b,2.0,,,1,2,0.0,732.0399999761721,0.0004996519255286808,0.39997960597226073,1.6044130454693004,0.0,0.00016655562958027982,0.0004990019960079841,0.003313440278630421,0.0
1,21.0,easy,CEP,control,explanation,prediction,4,explanation,visible,0.0,b,2.0,a,3.0,,,2,1,0.0,5758.021999999997,0.46124280982779653,5.259796218319965e-05,1.7244576006460302,0.0,,,,
1,21.0,easy,CEP,control,explanation,prediction,4,explanation,hidden,3.0,a,,a,2.0,,,1,2,0.0,596.1899999761372,0.00036630860127195543,0.4005059893787388,1.6067929862339927,0.0,0.00019984012789768185,0.0009960159362549805,0.007914476768016928,0.0
1,21.0,easy,CEP,control,explanation,prediction,5,explanation,visible,0.0,b,2.0,a,0.0,,,2,2,1.0,4730.939999976137,0.5381038013005172,5.259796218319965e-05,1.8528049407429767,0.0,,,,
1,21.0,easy,CEP,control,explanation,prediction,5,explanation,hidden,2.0,b,,b,2.0,,,2,2,1.0,1986.2139999761712,0.5382960337947982,0.00012951825775495273,1.8523376480017304,0.0,0.999571673329526,7.689941556444171e-05,2.3967371104538406,0.0
2,21.0,easy,ECP,explanation,control,prediction,1,explanation,visible,2.0,a,0.0,b,2.0,,,1,2,0.0,7330.308999856963,0.00012484392169549594,0.5711654284301704,1.9025978001672326,0.0,,,,
2,21.0,easy,ECP,explanation,control,prediction,1,explanation,hidden,3.0,b,,a,0.0,,,2,1,0.0,10313.153999809265,0.6655754686225243,0.00016653832911066915,2.03379361353012,0.0,0.9985029940119762,8.330556481172943e-05,2.3957007225287326,0.0
2,21.0,easy,ECP,explanation,control,prediction,2,explanation,visible,0.0,a,2.0,b,2.0,,,2,2,1.0,3696.5439999999935,0.9988762174856627,7.138675520937014e-05,2.396159517251052,0.0,,,,
2,21.0,easy,ECP,explanation,control,prediction,2,explanation,hidden,3.0,a,,b,2.0,,,1,2,0.0,6705.176000000007,0.0002498299657983425,0.3335104405352793,1.4642505101268648,0.0,8.330556481172943e-05,0.0004990019960079841,0.004144902223903118,0.0
2,21.0,easy,ECP,explanation,control,prediction,3,explanation,visible,0.0,a,2.0,a,0.0,,,2,2,1.0,10634.045999856957,0.570908686429252,0.00012490006496152165,1.9022146346274682,0.0,,,,
2,21.0,easy,ECP,explanation,control,prediction,3,explanation,hidden,0.0,a,,a,3.0,,,2,2,1.0,9854.909000000014,0.4281995446767788,0.00022489333995512497,1.6620575435125813,0.0,0.4285204227363611,0.00012493753123438283,1.6636626659144562,0.0
2,21.0,easy,ECP,explanation,control,prediction,4,explanation,visible,0.0,b,2.0,a,0.0,,,2,1,0.0,4221.446999809268,0.5711654284301704,0.00012484392169549594,1.9025978001672326,0.0,,,,
2,21.0,easy,ECP,explanation,control,prediction,4,explanation,hidden,2.0,b,,b,2.0,,,2,2,1.0,1054.9349998092512,0.5710157897405431,0.00019636462250163136,1.9016607615698466,0.0,0.9992507492507492,7.140816909454443e-05,2.3965000768184463,0.0
2,21.0,easy,ECP,explanation,control,prediction,5,explanation,visible,3.0,a,0.0,a,2.0,,,1,2,0.0,2484.2369998092763,8.328058313495661e-05,0.33302810613769973,1.4647999909155602,0.0,,,,
2,21.0,easy,ECP,explanation,control,prediction,5,explanation,hidden,3.0,a,,b,0.0,,,1,1,1.0,988.3309999046614,0.00016653832911066915,0.6655754686225243,2.03379361353012,0.0,8.330556481172943e-05,0.9985029940119762,2.3957007225287326,0.0
3,21.0,easy,ECP,explanation,control,prediction,1,explanation,visible,2.0,a,0.0,a,2.0,,,1,2,0.0,8558.54200009536,5.8784502077718544e-05,0.6150086864279866,1.966536833174875,0.0,,,,
3,21.0,easy,ECP,explanation,control,prediction,1,explanation,hidden,2.0,b,,b,2.0,,,2,2,1.0,5371.201000095345,0.615140556633042,0.0001357114490393146,1.9659527256467881,0.0,0.999571673329526,7.689941556444173e-05,2.3967371104538406,0.0
3,21.0,easy,ECP,explanation,control,prediction,2,explanation,visible,3.0,a,1.0,b,0.0,,,1,1,1.0,4847.511000095343,0.0001423489366349565,0.5988224390547442,1.9428040254300947,0.0,,,,
3,21.0,easy,ECP,explanation,control,prediction,2,explanation,hidden,3.0,b,,a,0.0,,,2,2,1.0,5291.827000047662,0.5990824003275381,0.0002850921203268737,1.9417515674213852,0.0,0.9985029940119762,0.00014277555682467162,2.395106694084201,0.0
3,21.0,easy,ECP,explanation,control,prediction,3,explanation,visible,0.0,b,2.0,a,3.0,,,2,2,1.0,1212.8699999523233,0.38440925394655184,5.8784502077718544e-05,1.5771722571366964,0.0,,,,
3,21.0,easy,ECP,explanation,control,prediction,3,explanation,hidden,2.0,a,,a,2.0,,,1,1,1.0,8848.119999999995,0.0001357114490393146,0.615140556633042,1.965952725646788,0.0,7.689941556444173e-05,0.999571673329526,2.3967371104538406,0.0
3,21.0,easy,ECP,explanation,control,prediction,4,explanation,visible,3.0,a,1.0,a,0.0,,,1,1,1.0,3827.9560000476777,0.00014256182096116166,0.5979282311202831,1.9415214877625426,0.0,,,,
3,21.0,easy,ECP,explanation,control,prediction,4,explanation,hidden,3.0,a,,a,2.0,,,1,2,0.0,2981.628999952344,0.0003425511579315775,0.40050598091597994,1.6070297046991995,0.0,0.00019984012789768185,0.0009960159362549805,0.007914476768016928,0.0
3,21.0,easy,ECP,explanation,control,prediction,5,explanation,visible,0.0,a,2.0,b,2.0,,,2,2,1.0,3993.782999999996,0.9993953198232929,7.686647749381161e-05,2.3965770428978246,0.0,,,,
3,21.0,easy,ECP,explanation,control,prediction,5,explanation,hidden,0.0,b,,a,0.0,,,2,1,0.0,3485.504000143032,0.6152083617371659,0.00020117420843192827,1.9653940080287873,0.0,0.6152722239310982,5.880969183721478e-05,1.966905092959204,0.0
4,21.0,easy,EPC,explanation,prediction,control,1,explanation,visible,0.0,a,2.0,a,0.0,,,2,2,1.0,9464.932999999728,0.5879038052792631,9.084576651663036e-05,1.9275707789945227,0.0,,,,
4,21.0,easy,EPC,explanation,prediction,control,1,explanation,hidden,2.0,b,,b,2.0,,,2,1,0.0,2774.9969999998,0.5880996779866069,0.00014969774738304552,1.9272676641255193,0.0,0.999571673329526,5.880969183721478e-05,2.396917885027825,0.0
4,21.0,easy,EPC,explanation,prediction,control,2,explanation,visible,3.0,a,1.0,a,0.0,,,1,2,0.0,3409.4459999998217,0.00033239114314646346,0.713307489880236,2.09262066894009,0.0,,,,
4,21.0,easy,EPC,explanation,prediction,control,2,explanation,hidden,0.0,a,,a,0.0,,,2,2,1.0,2085.794999999809,0.5880871730612404,0.00020184943117627495,1.9267288890604142,0.0,0.588155728063985,9.087604507451837e-05,1.9279366274844472,0.0
4,21.0,easy,EPC,explanation,prediction,control,3,explanation,visible,0.0,a,2.0,b,2.0,,,2,1,0.0,6244.814999999711,0.9992991619682039,5.879009731527879e-05,2.3966702160371507,0.0,,,,
4,21.0,easy,EPC,explanation,prediction,control,3,explanation,hidden,0.0,b,,a,0.0,,,2,2,1.0,1434.2979999997187,0.5881024007384381,0.0002335380051630701,1.9264348218626113,0.0,0.588155728063985,9.087604507451837e-05,1.9279366274844472,0.0
4,21.0,easy,EPC,explanation,prediction,control,4,explanation,visible,0.0,b,2.0,a,0.0,,,2,2,1.0,4033.199999999837,0.5879597632501031,9.083712044070575e-05,1.9276522077019527,0.0,,,,
4,21.0,easy,EPC,explanation,prediction,control,4,explanation,hidden,3.0,b,,a,0.0,,,2,2,1.0,1335.7739999998012,0.7131081606558508,0.0006651918491071055,2.08906406154212,0.0,0.9985029940119762,0.00033288948069241014,2.3932100650761665,0.0
4,21.0,easy,EPC,explanation,prediction,control,5,explanation,visible,3.0,a,1.0,b,0.0,,,1,1,1.0,1041.0419999996084,0.0003325570344733432,0.7129516666267693,2.092181418284077,0.0,,,,
4,21.0,easy,EPC,explanation,prediction,control,5,explanation,hidden,3.0,a,,b,2.0,,,1,2,0.0,1901.707999999635,0.0009982134707832615,0.285955026681901,1.3406180232133589,0.0,0.00033288948069241014,0.0004990019960079841,0.0016542447713368488,0.0
5,21.0,easy,CEP,control,explanation,prediction,1,explanation,visible,0.0,a,2.0,a,0.0,,,2,1,0.0,6381.67499999702,0.5996069380388193,5.879009731527879e-05,1.9447607460310745,0.0,,,,
5,21.0,easy,CEP,control,explanation,prediction,1,explanation,hidden,3.0,a,,b,0.0,,,1,1,1.0,3148.656999994011,0.0006650231993646193,0.5990666479575997,1.9379476825279793,0.0,0.00033288948069241014,0.9985029940119762,2.3932100650761665,0.0
5,21.0,easy,CEP,control,explanation,prediction,2,explanation,visible,2.0,a,0.0,b,2.0,,,1,2,0.0,3733.856999991054,5.878030658146667e-05,0.5997068114873202,1.9449035902073737,0.0,,,,
5,21.0,easy,CEP,control,explanation,prediction,2,explanation,hidden,3.0,a,,b,2.0,,,1,2,0.0,2837.545999994036,0.0009982770431390406,0.40004617661706454,1.5995969896750912,0.0,0.00033288948069241014,0.0004990019960079841,0.0016542447713368488,0.0
5,21.0,easy,CEP,control,explanation,prediction,3,explanation,visible,0.0,a,2.0,b,2.0,,,2,2,1.0,4376.150000000023,0.9993239921915148,6.662668720001337e-05,2.3966144863156127,0.0,,,,
5,21.0,easy,CEP,control,explanation,prediction,3,explanation,hidden,0.0,a,,a,3.0,,,2,1,0.0,3083.7790000030072,0.39976029878372354,0.00016981485177812986,1.6072616867576288,0.0,0.39996001066382303,5.880969183721478e-05,1.608770006506133,0.0
5,21.0,easy,CEP,control,explanation,prediction,4,explanation,visible,3.0,a,0.0,a,2.0,,,1,1,1.0,4561.472000000009,0.00033277856682723054,0.399680289079862,1.6054760252333846,0.0,,,,
5,21.0,easy,CEP,control,explanation,prediction,4,explanation,hidden,0.0,a,,a,0.0,,,2,1,0.0,5248.212999999989,0.5998398651127176,0.0001697410567913171,1.943985387165403,0.0,0.5999066915489203,5.880969183721478e-05,1.9451889183259679,0.0
5,21.0,easy,CEP,control,explanation,prediction,5,explanation,visible,0.0,b,2.0,a,3.0,,,2,2,1.0,4138.620000002964,0.39982674988728023,5.878030658146667e-05,1.6085037217863265,0.0,,,,
5,21.0,easy,CEP,control,explanation,prediction,5,explanation,hidden,0.0,b,,a,0.0,,,2,1,0.0,2494.010000002978,0.5998621306956371,0.000225169786781708,1.9434640069125788,0.0,0.5999066915489203,5.880969183721478e-05,1.9451889183259679,0.0
6,21.0,easy,PEC,prediction,explanation,control,1,explanation,visible,0.0,b,2.0,a,3.0,,,2,2,1.0,3817.302999976149,0.3683311313429985,0.00011095083646800566,1.5428965120267022,0.0,,,,
6,21.0,easy,PEC,prediction,explanation,control,1,explanation,hidden,3.0,a,,b,2.0,,,1,2,0.0,863.3040000000037,0.6246670365767308,0.4285365480425041,0.3156003322586882,0.0,0.9990013315579229,0.00024975024975024975,2.394492591102289,0.0
6,21.0,easy,PEC,prediction,explanation,control,2,explanation,visible,2.0,a,0.0,a,2.0,,,1,1,1.0,4526.260999952327,0.00011104215581124928,0.630867974112115,1.9879528419838846,0.0,,,,
6,21.0,easy,PEC,prediction,explanation,control,2,explanation,hidden,2.0,a,,a,2.0,,,1,1,1.0,495.3389999284991,0.00016368871898673166,0.7230327639887068,2.1061902753822195,0.0,5.262050094716902e-05,0.9990013315579229,2.396460913411297,0.0
6,21.0,easy,PEC,prediction,explanation,control,3,explanation,visible,3.0,a,1.0,a,0.0,,,1,1,1.0,1531.173999999999,0.24981268731268724,0.14281125071387776,0.36511343663377827,0.0,,,,
6,21.0,easy,PEC,prediction,explanation,control,3,explanation,hidden,0.0,b,,a,0.0,,,2,2,1.0,562.1629999046563,0.6314711843904623,0.0002775063922205664,1.987116420660845,0.0,0.6314986318669754,0.00011106175033318526,1.988815162934646,0.0
6,21.0,easy,PEC,prediction,explanation,control,4,explanation,visible,0.0,a,2.0,b,2.0,,,2,2,1.0,409.4339999523363,0.9986684790485189,5.2611217160833954e-05,2.3961580921680827,0.0,,,,
6,21.0,easy,PEC,prediction,explanation,control,4,explanation,hidden,0.0,a,,a,3.0,,,2,1,0.0,297.98799995234003,0.3680283717896207,0.00014046657885763203,1.5419550514056644,0.0,0.3683961271311303,0.00011106175033318526,1.5430341761834028,0.0
6,21.0,easy,PEC,prediction,explanation,control,5,explanation,visible,3.0,a,0.0,a,2.0,,,1,1,1.0,359.30999992846046,0.2499558927311221,0.4280415471166943,0.41136784255760445,0.0,,,,
6,21.0,easy,PEC,prediction,explanation,control,5,explanation,hidden,0.0,b,,b,2.0,,,2,2,1.0,984.442999952298,0.9995786002634272,0.00038552936753445997,2.393664227654377,0.0,0.9996668147490004,5.262050094716902e-05,2.3970662646213174,0.0
7,21.0,easy,ECP,explanation,control,prediction,1,explanation,visible,2.0,a,0.0,a,2.0,,,1,1,1.0,4193.138000000006,0.00016650013570103272,0.5989620618818342,1.9427626631467039,0.0,,,,
7,21.0,easy,ECP,explanation,control,prediction,1,explanation,hidden,0.0,b,,a,0.0,,,2,1,0.0,1918.813000005961,0.599798864716817,0.0006648310731145229,1.9389964634681625,0.0,0.5998600559776089,0.00016655562958027982,1.9440460382415308,0.0
7,21.0,easy,ECP,explanation,control,prediction,2,explanation,visible,0.0,a,2.0,b,2.0,,,2,2,1.0,1914.4269999940293,0.9980040751275598,9.992671079058381e-05,2.395080379311051,0.0,,,,
7,21.0,easy,ECP,explanation,control,prediction,2,explanation,hidden,2.0,b,,b,2.0,,,2,1,0.0,2049.58099999404,0.599078683222133,0.00026653491388613714,1.9419313119266068,0.0,0.9985029940119762,9.996001599360256e-05,2.395534330486201,0.0
7,21.0,easy,ECP,explanation,control,prediction,3,explanation,visible,3.0,a,1.0,a,0.0,,,1,1,1.0,979.1329999940352,4.1597358524078334e-05,0.7483784927647202,2.1377407989408534,0.0,,,,
7,21.0,easy,ECP,explanation,control,prediction,3,explanation,hidden,2.0,a,,a,2.0,,,1,1,1.0,1134.9309999940451,0.00026653491388613714,0.599078683222133,1.9419313119266068,0.0,9.996001599360256e-05,0.9985029940119762,2.395534330486201,0.0
7,21.0,easy,ECP,explanation,control,prediction,4,explanation,visible,2.0,a,0.0,b,2.0,,,1,2,0.0,3585.619999999996,0.00016630629480545906,0.5996601914542934,1.94376290882103,0.0,,,,
7,21.0,easy,ECP,explanation,control,prediction,4,explanation,hidden,3.0,a,,b,2.0,,,1,2,0.0,1678.6480000059528,0.00012491157098604838,0.250290793272736,1.252345125248814,0.0,4.1659723379436764e-05,0.0004990019960079841,0.00456110059249231,0.0
7,21.0,easy,ECP,explanation,control,prediction,5,explanation,visible,0.0,b,2.0,a,0.0,,,2,2,1.0,454.4189999940281,0.5996601914542934,0.00016630629480545906,1.94376290882103,0.0,,,,
7,21.0,easy,ECP,explanation,control,prediction,5,explanation,hidden,3.0,b,,a,0.0,,,2,2,1.0,2878.902999994054,0.7486185109635367,8.327960225243403e-05,2.137607110634228,0.0,0.9985029940119762,4.1659723379436764e-05,2.3961169208973216,0.0
8,21.0,easy,CEP,control,explanation,prediction,1,explanation,visible,0.0,b,2.0,a,0.0,,,2,2,1.0,12201.02000000002,0.5996818389658809,8.326393977934516e-05,1.9446232370227774,0.0,,,,
8,21.0,easy,CEP,control,explanation,prediction,1,explanation,hidden,0.0,b,,a,0.0,,,2,1,0.0,7302.719999999972,0.5998480576945806,0.0002497017853354307,1.9431991595736822,0.0,0.5999066915489203,8.330556481172943e-05,1.9449441335332678,0.0
8,21.0,easy,CEP,control,explanation,prediction,2,explanation,visible,0.0,b,2.0,a,3.0,,,2,2,1.0,5051.700000000012,0.39981010061484856,8.326393977934516e-05,1.6082257485760678,0.0,,,,
8,21.0,easy,CEP,control,explanation,prediction,2,explanation,hidden,3.0,a,,a,2.0,,,1,2,0.0,6593.640000000014,0.0002915166722273862,0.33349965562770095,1.4638098899687837,0.0,0.00016655562958027982,0.0003328894806924102,0.001659195507293582,0.0
8,21.0,easy,CEP,control,explanation,prediction,3,explanation,visible,0.0,a,2.0,a,0.0,,,2,2,1.0,3500.119999999996,0.5996069380388193,8.327434083691243e-05,1.944516077388203,0.0,,,,
8,21.0,easy,CEP,control,explanation,prediction,3,explanation,hidden,3.0,a,,b,0.0,,,1,1,1.0,9567.880000000005,0.00024973468017973664,0.6645949375788593,2.0316817806330265,0.0,0.00012493753123438283,0.9970119521912354,2.3939265740782867,0.0
8,21.0,easy,CEP,control,explanation,prediction,4,explanation,visible,2.0,a,0.0,a,2.0,,,1,1,1.0,5579.5,8.327434083691243e-05,0.5996069380388193,1.944516077388203,0.0,,,,
8,21.0,easy,CEP,control,explanation,prediction,4,explanation,hidden,2.0,b,,b,2.0,,,2,2,1.0,6566.119999999995,0.5997235624788168,0.00015000342647502083,1.944016249975817,0.0,0.9995003331112592,6.664889362836578e-05,2.396774660041638,0.0
8,21.0,easy,CEP,control,explanation,prediction,5,explanation,visible,0.0,a,2.0,b,2.0,,,2,2,1.0,2581.7399999999907,0.9992505412919211,6.662391278367749e-05,2.3965476972029367,0.0,,,,
8,21.0,easy,CEP,control,explanation,prediction,5,explanation,hidden,2.0,a,,a,2.0,,,1,2,0.0,5617.340000000026,0.00015000342647502083,0.5997235624788168,1.944016249975817,0.0,6.664889362836578e-05,0.9995003331112592,2.396774660041638,0.0
9,21.0,easy,EPC,explanation,prediction,control,1,explanation,visible,0.0,a,2.0,a,0.0,,,2,2,1.0,11609.232000000367,0.5378351524328682,5.552655631815259e-05,1.8523545707434128,0.0,,,,
9,21.0,easy,EPC,explanation,prediction,control,1,explanation,hidden,0.0,b,,b,2.0,,,2,2,1.0,9925.41800000018,0.9996335200099361,0.00040977853234726416,2.3934726413923175,0.0,0.9998333703621417,7.689941556444171e-05,2.3969750812037955,0.0
9,21.0,easy,EPC,explanation,prediction,control,2,explanation,visible,0.0,b,2.0,a,0.0,,,2,2,1.0,2566.623999999836,0.5382113611030518,5.5487743365803326e-05,1.8529446059425594,0.0,,,,
9,21.0,easy,EPC,explanation,prediction,control,2,explanation,hidden,3.0,a,,b,2.0,,,1,2,0.0,2893.86400000035,0.0005993667460976473,0.3333997458846245,1.4605145398967685,0.0,0.00019984012789768188,0.0003328894806924102,0.0013269591709783339,0.0
9,21.0,easy,EPC,explanation,prediction,control,3,explanation,visible,2.0,a,0.0,a,2.0,,,1,2,0.0,5345.76300000021,5.552655631815259e-05,0.5378351524328682,1.852354570743413,0.0,,,,
9,21.0,easy,EPC,explanation,prediction,control,3,explanation,hidden,3.0,a,,a,2.0,,,1,1,1.0,4815.81899999961,0.00036631786818130604,0.33377527605244006,1.4636999313117502,0.0,0.00016655562958027982,0.0009960159362549805,0.00824671310433224,0.0
9,21.0,easy,EPC,explanation,prediction,control,4,explanation,visible,2.0,a,0.0,b,2.0,,,1,2,0.0,1405.1389999996172,5.5487743365803326e-05,0.5382113611030518,1.8529446059425594,0.0,,,,
9,21.0,easy,EPC,explanation,prediction,control,4,explanation,hidden,3.0,a,,b,0.0,,,1,1,1.0,5122.337999999814,0.00039904094014805243,0.6659020649864107,2.031901654245565,0.0,0.00019984012789768188,0.9990013315579229,2.394990572892024,0.0
9,21.0,easy,EPC,explanation,prediction,control,5,explanation,visible,3.0,a,0.0,a,2.0,,,1,1,1.0,5852.900999999605,0.00019978019983053942,0.3329449807540646,1.4634446596620192,0.0,,,,
9,21.0,easy,EPC,explanation,prediction,control,5,explanation,hidden,0.0,b,,a,0.0,,,2,2,1.0,4020.372000000381,0.5383445457398335,0.00038755987445762284,1.8498398839722485,0.0,0.5383728083666564,5.5543212619417915e-05,1.8531969878988916,0.0
10,21.0,easy,PCE,prediction,control,explanation,1,explanation,visible,2.0,a,0.0,a,2.0,,,1,2,0.0,4105.571999999986,8.327780862620797e-05,0.570994232891322,1.90275792463083,0.0,,,,
10,21.0,easy,PCE,prediction,control,explanation,1,explanation,hidden,0.0,a,,a,0.0,,,2,2,1.0,3355.4749999881024,0.5712936828313965,0.00019420782816088222,1.9020963396757138,0.0,0.5713367609254499,8.330556481172943e-05,1.903267995408058,0.0
10,21.0,easy,PCE,prediction,control,explanation,2,explanation,visible,0.0,b,2.0,a,0.0,,,2,2,1.0,3605.077999988105,0.5711463999433557,8.325562142754973e-05,1.9029848990875888,0.0,,,,
10,21.0,easy,PCE,prediction,control,explanation,2,explanation,hidden,2.0,b,,b,2.0,,,2,1,0.0,1405.1509999642149,0.5711132510753445,0.00015472357628109102,1.9022216762611037,0.0,0.999400479616307,7.140816909454443e-05,2.3966362788352313,0.0
10,21.0,easy,PCE,prediction,control,explanation,3,explanation,visible,3.0,a,0.0,a,2.0,,,1,2,0.0,4622.209999976156,0.00011102474619602405,0.4995337840320681,1.789872508980134,0.0,,,,
10,21.0,easy,PCE,prediction,control,explanation,3,explanation,hidden,0.0,a,,a,3.0,,,2,2,1.0,722.060999999987,0.4282636712078173,0.00019438016945171955,1.6624834354017899,0.0,0.4285204227363611,8.330556481172943e-05,1.664078552557073,0.0
10,21.0,easy,PCE,prediction,control,explanation,4,explanation,visible,0.0,b,2.0,a,3.0,,,2,2,1.0,1888.7409999642405,0.4283776460517532,8.325562142754973e-05,1.6638088709596337,0.0,,,,
10,21.0,easy,PCE,prediction,control,explanation,4,explanation,hidden,2.0,a,,a,2.0,,,1,1,1.0,1638.269999988086,0.00015472357628109102,0.5711132510753445,1.9022216762611037,0.0,7.140816909454443e-05,0.999400479616307,2.3966362788352313,0.0
10,21.0,easy,PCE,prediction,control,explanation,5,explanation,visible,3.0,a,1.0,b,0.0,,,1,1,1.0,4488.374999976135,0.00011089549022789608,0.49908519071118257,1.7891252831033893,0.0,,,,
10,21.0,easy,PCE,prediction,control,explanation,5,explanation,hidden,0.0,b,,a,0.0,,,2,2,1.0,521.8559999642312,0.5713128201455028,0.00028285871812823064,1.901240448008607,0.0,0.5713367609254499,8.330556481172943e-05,1.903267995408058,0.0
11,21.0,easy,CEP,control,explanation,prediction,1,explanation,visible,3.0,a,0.0,a,2.0,,,1,2,0.0,8392.494999952323,0.0009957861571248078,0.42814841497736983,1.6542985384261297,0.0,,,,
11,21.0,easy,CEP,control,explanation,prediction,1,explanation,hidden,0.0,b,,b,2.0,,,2,2,1.0,2685.221999952337,0.9996156134929194,0.00030861854554116783,2.394464336489404,0.0,0.9997693017533067,5.880969183721478e-05,2.397097601066904,0.0
11,21.0,easy,CEP,control,explanation,prediction,2,explanation,visible,3.0,a,1.0,b,0.0,,,1,1,1.0,1814.6990000476944,0.0009945248944342394,0.5703898456656077,1.892793095967079,0.0,,,,
11,21.0,easy,CEP,control,explanation,prediction,2,explanation,hidden,3.0,a,,b,2.0,,,1,2,0.0,858.7470000477042,0.0029845926346526892,0.4286556800589592,1.6357579406119647,0.0,0.0009960159362549803,0.0004990019960079841,0.004933272825701773,0.0
11,21.0,easy,CEP,control,explanation,prediction,3,explanation,visible,2.0,a,0.0,b,2.0,,,1,2,0.0,1324.0869999999995,7.68417986197131e-05,0.588020041568738,1.927879658803845,0.0,,,,
11,21.0,easy,CEP,control,explanation,prediction,3,explanation,hidden,3.0,b,,a,0.0,,,2,2,1.0,2066.600999952294,0.5705679439409079,0.0019878900357256243,1.8832709497371298,0.0,0.9985029940119762,0.0009960159362549803,2.386622547479128,0.0
11,21.0,easy,CEP,control,explanation,prediction,4,explanation,visible,0.0,b,2.0,a,3.0,,,2,1,0.0,1563.936999904632,0.4116316679354799,7.68417986197131e-05,1.6316666586923316,0.0,,,,
11,21.0,easy,CEP,control,explanation,prediction,4,explanation,hidden,0.0,b,,a,0.0,,,2,2,1.0,2907.353999999992,0.588129780828924,0.00032652930116666153,1.925547295562587,0.0,0.588155728063985,7.689941556444171e-05,1.9280762766312753,0.0
11,21.0,easy,CEP,control,explanation,prediction,5,explanation,visible,0.0,a,2.0,b,2.0,,,2,2,1.0,1803.9030000476632,0.9990202238548901,5.8796124544419365e-05,2.396416381834026,0.0,,,,
11,21.0,easy,CEP,control,explanation,prediction,5,explanation,hidden,0.0,a,,a,3.0,,,2,2,1.0,780.1949999046046,0.4114183455391816,0.00015360889004846972,1.6304828390729447,0.0,0.41172665255234064,7.689941556444171e-05,1.6318517161209762,0.0
12,21.0,easy,ECP,explanation,control,prediction,1,explanation,visible,0.0,b,2.0,a,3.0,,,2,1,0.0,10268.105999998515,0.4283776460517532,7.686099147272065e-05,1.6638727661058317,0.0,,,,
12,21.0,easy,ECP,explanation,control,prediction,1,explanation,hidden,3.0,a,,b,0.0,,,1,2,0.0,4927.304000000004,0.0002853109826365858,0.6655791685842853,2.03261339707864,0.0,0.00014277555682467162,0.9985029940119762,2.3951066940842005,0.0
12,21.0,easy,ECP,explanation,control,prediction,2,explanation,visible,3.0,a,1.0,a,0.0,,,1,2,0.0,4441.11900000149,0.00014256182096116166,0.6653914855166416,2.033792659733876,0.0,,,,
12,21.0,easy,ECP,explanation,control,prediction,2,explanation,hidden,0.0,b,,a,0.0,,,2,2,1.0,8766.207000001508,0.5712943221857538,0.0002432188071286802,1.9016082518931012,0.0,0.5713367609254499,7.689941556444171e-05,1.9033320056267737,0.0
12,21.0,easy,ECP,explanation,control,prediction,3,explanation,visible,3.0,a,0.0,a,2.0,,,1,2,0.0,3498.512999998522,0.00014272798611493438,0.3331112869013374,1.4643982603556125,0.0,,,,
12,21.0,easy,ECP,explanation,control,prediction,3,explanation,hidden,0.0,a,,a,3.0,,,2,1,0.0,721.380999999994,0.4283064346202996,0.00018796189143165863,1.6626284433273866,0.0,0.4285204227363611,7.689941556444171e-05,1.6641425627757886,0.0
12,21.0,easy,ECP,explanation,control,prediction,4,explanation,visible,3.0,a,1.0,b,0.0,,,1,2,0.0,4543.97500000149,0.00014256182096116166,0.6653914855166416,2.033792659733876,0.0,,,,
12,21.0,easy,ECP,explanation,control,prediction,4,explanation,hidden,3.0,a,,a,2.0,,,1,2,0.0,4690.465000001481,0.00030929371610588833,0.333610357364918,1.4638879868930588,0.0,0.00016655562958027982,0.0004990019960079841,0.003313440278630421,0.0
12,21.0,easy,ECP,explanation,control,prediction,5,explanation,visible,0.0,b,2.0,b,2.0,,,2,2,1.0,2253.817999998515,0.9994361933675604,7.137248879686229e-05,2.3966691196074343,0.0,,,,
12,21.0,easy,ECP,explanation,control,prediction,5,explanation,hidden,2.0,b,,b,2.0,,,2,2,1.0,4193.100999995542,0.571183892433836,0.00014831667016093207,1.9023909028189812,0.0,0.9995003331112592,7.140816909454443e-05,2.3967271001168853,0.0
13,21.0,easy,PEC,prediction,explanation,control,1,explanation,visible,0.0,a,2.0,a,0.0,,,2,1,0.0,4145.694000000018,0.5994572110107967,8.328285337094106e-05,1.9443019535010997,0.0,,,,
13,21.0,easy,PEC,prediction,explanation,control,1,explanation,hidden,0.0,a,,a,3.0,,,2,1,0.0,15030.787000000128,0.399660529245661,0.00017418801745448196,1.6070183754795793,0.0,0.39996001066382303,8.330556481172943e-05,1.6085252217134327,0.0
13,21.0,easy,PEC,prediction,explanation,control,2,explanation,visible,0.0,a,2.0,b,2.0,,,2,1,0.0,8974.748000000021,0.9990010198065845,6.663072326478116e-05,2.3963206110070363,0.0,,,,
13,21.0,easy,PEC,prediction,explanation,control,2,explanation,hidden,3.0,a,,b,2.0,,,1,2,0.0,2986.976000000024,0.00042819410449483836,0.3335195222005278,1.4624938435083017,0.0,0.00014277555682467162,0.0004990019960079841,0.0035508737793712285,0.0
13,21.0,easy,PEC,prediction,explanation,control,3,explanation,visible,3.0,a,1.0,a,0.0,,,1,2,0.0,3111.228000000003,0.00014256182096116166,0.6653914855166416,2.033792659733876,0.0,,,,
13,21.0,easy,PEC,prediction,explanation,control,3,explanation,hidden,3.0,a,,a,2.0,,,1,1,1.0,4005.5830000001006,0.0003093016826736082,0.33352717340033966,1.4636960487150266,0.0,0.00016655562958027982,0.0004990019960079841,0.003313440278630421,0.0
13,21.0,easy,PEC,prediction,explanation,control,4,explanation,visible,0.0,b,2.0,a,3.0,,,2,2,1.0,4207.040000000037,0.39985097031195177,8.324314805487747e-05,1.6083077234278602,0.0,,,,
13,21.0,easy,PEC,prediction,explanation,control,4,explanation,hidden,0.0,b,,a,0.0,,,2,2,1.0,3666.731000000029,0.5998641753375608,0.0003327175536039662,1.9423944422616402,0.0,0.5999066915489203,8.330556481172943e-05,1.9449441335332678,0.0
13,21.0,easy,PEC,prediction,explanation,control,5,explanation,visible,0.0,b,2.0,a,0.0,,,2,2,1.0,8402.195999999996,0.5997431401062951,8.324314805487747e-05,1.9447110538084529,0.0,,,,
13,21.0,easy,PEC,prediction,explanation,control,5,explanation,hidden,0.0,b,,b,2.0,,,2,1,0.0,11491.465000000084,0.9995683895829992,0.0003164473408834806,2.3943433456927874,0.0,0.9997500833055648,6.664889362836578e-05,2.3970017830591126,0.0
14,21.0,easy,CPE,control,prediction,explanation,1,explanation,visible,0.0,b,2.0,a,3.0,,,2,1,0.0,8665.148000095389,0.4116384506130621,0.00014263297138177082,1.631022724991089,0.0,,,,
14,21.0,easy,CPE,control,prediction,explanation,1,explanation,hidden,3.0,a,,b,2.0,,,1,2,0.0,2048.890000000014,0.000599314448529179,0.3750132804847409,1.5521973195435694,0.0,0.00019984012789768188,0.00024975024975024975,0.0004979817897353714,0.0
14,21.0,easy,CPE,control,prediction,explanation,2,explanation,visible,2.0,a,0.0,a,2.0,,,1,2,0.0,2207.271000095352,0.00014274497080135872,0.5875683554993406,1.9265646329208668,0.0,,,,
14,21.0,easy,CPE,control,prediction,explanation,2,explanation,hidden,0.0,b,,a,0.0,,,2,1,0.0,1926.3590000476688,0.5881278640611616,0.00047470510247359034,1.924068664294574,0.0,0.588155728063985,0.00014277555682467162,1.9274182379680278,0.0
14,21.0,easy,CPE,control,prediction,explanation,3,explanation,visible,0.0,b,2.0,b,2.0,,,2,1,0.0,2672.7200000477023,0.9993575405803123,5.8750960453888674e-05,2.396723711066147,0.0,,,,
14,21.0,easy,CPE,control,prediction,explanation,3,explanation,hidden,0.0,a,,a,0.0,,,2,2,1.0,1245.368000095361,0.5880258320934332,0.00021397781011868415,1.9265187058512676,0.0,0.588155728063985,0.00014277555682467162,1.9274182379680278,0.0
14,21.0,easy,CPE,control,prediction,explanation,4,explanation,visible,2.0,a,0.0,b,2.0,,,1,1,1.0,1491.9479999999749,0.00014263297138177082,0.5880297306929344,1.927236550756255,0.0,,,,
14,21.0,easy,CPE,control,prediction,explanation,4,explanation,hidden,3.0,a,,a,2.0,,,1,2,0.0,1855.3880000953795,0.000324721608540658,0.3753103252393798,1.5555557657569374,0.0,0.00012493753123438286,0.0009960159362549805,0.008662288406988131,0.0
14,21.0,easy,CPE,control,prediction,explanation,5,explanation,visible,3.0,a,0.0,a,2.0,,,1,2,0.0,1444.4200001907302,0.00019979731724474752,0.3745630929541888,1.5552284105813825,0.0,,,,
14,21.0,easy,CPE,control,prediction,explanation,5,explanation,hidden,2.0,a,,a,2.0,,,1,1,1.0,1066.8410001907614,0.00020158296913564276,0.5877094780837137,1.9261824919038624,0.0,5.880969183721478e-05,0.9990013315579229,2.396399055966312,0.0
15,21.0,easy,ECP,explanation,control,prediction,1,explanation,visible,0.0,a,2.0,b,2.0,,,2,2,1.0,4153.97099999999,0.9992339498763131,7.138675520937014e-05,2.396485008119636,0.0,,,,
15,21.0,easy,ECP,explanation,control,prediction,1,explanation,hidden,0.0,b,,a,0.0,,,2,2,1.0,6830.071000000753,0.571298563253123,0.00025538944722857407,1.9014931658830438,0.0,0.5713367609254499,5.5543212619417915e-05,1.9035454263270424,0.0
15,21.0,easy,ECP,explanation,control,prediction,2,explanation,visible,3.0,a,1.0,a,0.0,,,1,2,0.0,6133.181000000361,0.0009945248944342394,0.6657235722124,2.0257549264194177,0.0,,,,
15,21.0,easy,ECP,explanation,control,prediction,2,explanation,hidden,2.0,a,,a,2.0,,,1,1,1.0,5955.602000000363,0.0001269597939040492,0.5714924661027837,1.90306381772677,0.0,7.140816909454443e-05,0.999400479616307,2.3966362788352313,0.0
15,21.0,easy,ECP,explanation,control,prediction,3,explanation,visible,2.0,a,0.0,b,2.0,,,1,2,0.0,884.0740000003716,5.550991333127678e-05,0.5711654284301704,1.9032905156091673,0.0,,,,
15,21.0,easy,ECP,explanation,control,prediction,3,explanation,hidden,3.0,a,,b,2.0,,,1,2,0.0,1302.0970000005327,0.0029846401311258734,0.3335104405352793,1.437336028041462,0.0,0.0009960159362549803,0.0004990019960079841,0.004933272825701773,0.0
15,21.0,easy,ECP,explanation,control,prediction,4,explanation,visible,0.0,b,2.0,b,2.0,,,2,2,1.0,495.05600000038976,0.9995335402830646,7.136535844161004e-05,2.3967577295190146,0.0,,,,
15,21.0,easy,ECP,explanation,control,prediction,4,explanation,hidden,0.0,a,,a,0.0,,,2,2,1.0,1473.310000000347,0.5712603961145071,0.00015550628318961157,1.90243309243519,0.0,0.5713367609254499,5.5543212619417915e-05,1.9035454263270424,0.0
15,21.0,easy,ECP,explanation,control,prediction,5,explanation,visible,0.0,a,2.0,a,0.0,,,2,2,1.0,677.5030000000261,0.570994232891322,5.552655631815259e-05,1.9030352446895158,0.0,,,,
15,21.0,easy,ECP,explanation,control,prediction,5,explanation,hidden,3.0,b,,a,0.0,,,2,2,1.0,738.0169999999925,0.6655754686225243,0.0019883154054678043,2.0157695457222835,0.0,0.9985029940119762,0.0009960159362549803,2.386622547479128,0.0
16,21.0,easy,EPC,explanation,prediction,control,1,explanation,visible,2.0,a,0.0,b,2.0,,,1,2,0.0,2904.1599999999744,0.0001664557760853276,0.588020041568738,1.9269846077880695,0.0,,,,
16,21.0,easy,EPC,explanation,prediction,control,1,explanation,hidden,2.0,b,,b,2.0,,,2,2,1.0,2390.200000000012,0.5879305017607906,0.00022537673675981842,1.9262664005168684,0.0,0.999400479616307,5.880969183721478e-05,2.396762181634005,0.0
16,21.0,easy,EPC,explanation,prediction,control,2,explanation,visible,0.0,a,2.0,b,2.0,,,2,2,1.0,1819.5,0.998901112288051,5.8796124544419365e-05,2.3963079961834595,0.0,,,,
16,21.0,easy,EPC,explanation,prediction,control,2,explanation,hidden,0.0,b,,a,0.0,,,2,2,1.0,2414.7999999999884,0.58812981915079,0.0003660699626899348,1.9251533091983013,0.0,0.588155728063985,0.00016655562958027982,1.927180804467287,0.0
16,21.0,easy,EPC,explanation,prediction,control,3,explanation,visible,0.0,b,2.0,b,2.0,,,2,2,1.0,1410.9400000000023,0.999269750136841,5.8774434228199665e-05,2.3966436171432295,0.0,,,,
16,21.0,easy,EPC,explanation,prediction,control,3,explanation,hidden,3.0,a,,a,2.0,,,1,2,0.0,3547.719999999972,0.00030928666179725034,0.42864035025746805,1.6620500539224237,0.0,0.00014277555682467162,0.0004990019960079841,0.0035508737793712285,0.0
16,21.0,easy,EPC,explanation,prediction,control,4,explanation,visible,3.0,a,1.0,a,0.0,,,1,2,0.0,5761.880000000005,0.0001663892957291677,0.5703898456656077,1.9010267061638808,0.0,,,,
16,21.0,easy,EPC,explanation,prediction,control,4,explanation,hidden,2.0,a,,a,2.0,,,1,2,0.0,1359.6599999999744,0.00022537673675981842,0.5879305017607906,1.9262664005168686,0.0,5.880969183721478e-05,0.999400479616307,2.396762181634005,0.0
16,21.0,easy,EPC,explanation,prediction,control,5,explanation,visible,3.0,a,0.0,a,2.0,,,1,2,0.0,1688.8800000000049,0.00016651720548855874,0.4282125698641544,1.6626648239454178,0.0,,,,
16,21.0,easy,EPC,explanation,prediction,control,5,explanation,hidden,3.0,a,,b,2.0,,,1,2,0.0,1073.5999999999767,0.0004994837021710249,0.4285607891146734,1.6600052304783444,0.0,0.00016655562958027982,0.0003328894806924102,0.001659195507293582,0.0
17,21.0,easy,EPC,explanation,prediction,control,1,explanation,visible,0.0,b,2.0,a,0.0,,,2,2,1.0,6853.464000011911,0.6247359063996271,9.083063732381491e-05,1.979729241357609,0.0,,,,
17,21.0,easy,EPC,explanation,prediction,control,1,explanation,hidden,0.0,b,,a,0.0,,,2,2,1.0,2966.507999994036,0.6248654567698804,0.00025728927114081245,1.9782462862865866,0.0,0.6249062734316422,9.087604507451837e-05,1.9799638347061763,0.0
17,21.0,easy,EPC,explanation,prediction,control,2,explanation,visible,0.0,a,2.0,b,2.0,,,2,2,1.0,2679.844000011916,0.9992278411992878,6.246734390557213e-05,2.3965685853493843,0.0,,,,
17,21.0,easy,EPC,explanation,prediction,control,2,explanation,hidden,2.0,a,,a,2.0,,,1,2,0.0,2685.802999994048,0.00015342210248044094,0.6247501651434517,1.9791237643661803,0.0,6.248437890527369e-05,0.9995003331112592,2.3968162783173543,0.0
17,21.0,easy,EPC,explanation,prediction,control,3,explanation,visible,3.0,a,1.0,b,0.0,,,1,2,0.0,1081.184999988065,0.0002495008320574234,0.569538095476461,1.8989259779532803,0.0,,,,
17,21.0,easy,EPC,explanation,prediction,control,3,explanation,hidden,3.0,b,,a,0.0,,,2,2,1.0,4561.396000000008,0.5697274293900433,0.0004991282498709609,1.8967217544737922,0.0,0.9970119521912354,0.0002497502497502498,2.39268078064958,0.0
17,21.0,easy,EPC,explanation,prediction,control,4,explanation,visible,3.0,a,1.0,a,0.0,,,1,2,0.0,12757.490000005955,0.0002490039840637452,0.5706745184984651,1.9006268191694062,0.0,,,,
17,21.0,easy,EPC,explanation,prediction,control,4,explanation,hidden,0.0,a,,a,0.0,,,2,2,1.0,835.0190000119328,0.6248314655458947,0.00018167439197582972,1.978953884890696,0.0,0.6249062734316422,9.087604507451837e-05,1.9799638347061763,0.0
17,21.0,easy,EPC,explanation,prediction,control,5,explanation,visible,0.0,b,2.0,a,3.0,,,2,2,1.0,3767.536000011925,0.3748665307773384,9.083063732381491e-05,1.5569556966122637,0.0,,,,
17,21.0,easy,EPC,explanation,prediction,control,5,explanation,hidden,3.0,a,,b,2.0,,,1,2,0.0,746.3960000000079,0.0007489538820448247,0.4289216316372196,1.6582084590626394,0.0,0.0002497502497502498,0.0009960159362549805,0.007416494978281631,0.0
18,21.0,easy,PCE,prediction,control,explanation,1,explanation,visible,3.0,a,1.0,b,0.0,,,1,1,1.0,2469.5509999761707,0.24925298804780885,0.624188613083605,0.72925532005296,0.0,,,,
18,21.0,easy,PCE,prediction,control,explanation,1,explanation,hidden,3.0,a,,b,0.0,,,1,1,1.0,1294.2380000476842,0.31180921243461585,0.624345259219306,0.5647079906091409,0.0,0.00012493753123438283,0.9990013315579229,2.395738384530995,0.0
18,21.0,easy,PCE,prediction,control,explanation,2,explanation,visible,0.0,a,2.0,b,2.0,,,2,2,1.0,580.3430000476656,0.9993254197571345,5.2604721108820205e-05,2.3967559210177534,0.0,,,,
18,21.0,easy,PCE,prediction,control,explanation,2,explanation,hidden,3.0,a,,b,2.0,,,1,2,0.0,1419.684000023815,0.5625803308236428,0.3750331106730366,0.33275729629779893,0.0,0.9996251874062968,0.0003328894806924102,2.394231109709778,0.0
18,21.0,easy,PCE,prediction,control,explanation,3,explanation,visible,0.0,b,2.0,b,2.0,,,2,1,0.0,4015.94099995232,0.9994003298320814,5.260077812072705e-05,2.3968240999618047,0.0,,,,
18,21.0,easy,PCE,prediction,control,explanation,3,explanation,hidden,0.0,b,,b,2.0,,,2,2,1.0,3188.467999999993,0.9995253419475694,0.00017755804285885123,2.3956896664027774,0.0,0.9997001199520191,5.262050094716902e-05,2.3970965507936657,0.0
18,21.0,easy,PCE,prediction,control,explanation,4,explanation,visible,2.0,a,0.0,b,2.0,,,1,2,0.0,552.7660000238684,9.992254972074139e-05,0.5787045369181312,1.914016975813594,0.0,,,,
18,21.0,easy,PCE,prediction,control,explanation,4,explanation,hidden,0.0,a,,a,3.0,,,2,1,0.0,1299.4400000476744,0.42085889543247135,0.00012503209450414918,1.6490594450356129,0.0,0.4210166280782993,9.996001599360256e-05,1.6496126700609115,0.0
18,21.0,easy,PCE,prediction,control,explanation,5,explanation,visible,3.0,a,0.0,a,2.0,,,1,2,0.0,4679.529000047711,0.24992502998800478,0.37479699992582427,0.305168412604368,0.0,,,,
18,21.0,easy,PCE,prediction,control,explanation,5,explanation,hidden,0.0,b,,a,0.0,,,2,2,1.0,2265.438000047696,0.5788418858608348,0.0002557367538339935,1.9126639481764451,0.0,0.5788781309198064,9.996001599360256e-05,1.9142723413877567,0.0
19,21.0,easy,PEC,prediction,explanation,control,1,explanation,visible,3.0,a,1.0,a,0.0,,,1,2,0.0,15654.872000011906,0.24925298804780885,0.6657235722124,0.7850246791119382,0.0,,,,
19,21.0,easy,PEC,prediction,explanation,control,1,explanation,hidden,2.0,a,,a,2.0,,,1,1,1.0,5710.93500001193,0.00012223169235034507,0.6995138736514155,2.077612128542843,0.0,6.664889362836578e-05,0.9992507492507492,2.3965476367431995,0.0
19,21.0,easy,PEC,prediction,explanation,control,2,explanation,visible,0.0,a,2.0,a,0.0,,,2,2,1.0,4339.869999994058,0.5994572110107967,5.552933144332176e-05,1.9445792962294048,0.0,,,,
19,21.0,easy,PEC,prediction,explanation,control,2,explanation,hidden,0.0,a,,a,0.0,,,2,1,0.0,3854.7589999940246,0.5997894720179262,0.00015959889840497398,1.9440146328124732,0.0,0.5999066915489203,5.5543212619417915e-05,1.9452215644522521,0.0
19,21.0,easy,PEC,prediction,explanation,control,3,explanation,visible,3.0,a,1.0,b,0.0,,,1,1,1.0,2931.8960000119405,0.24975033288948073,0.6643978715384964,0.7818688625379195,0.0,,,,
19,21.0,easy,PEC,prediction,explanation,control,3,explanation,hidden,0.0,b,,a,0.0,,,2,2,1.0,3253.865000005986,0.5998675923318175,0.00036750236650798316,1.9420526900869328,0.0,0.5999066915489203,5.5543212619417915e-05,1.9452215644522521,0.0
19,21.0,easy,PEC,prediction,explanation,control,4,explanation,visible,2.0,a,0.0,b,2.0,,,1,1,1.0,5110.598999999987,5.5501596825747016e-05,0.5997567648515988,1.945007747883281,0.0,,,,
19,21.0,easy,PEC,prediction,explanation,control,4,explanation,hidden,0.0,a,,a,3.0,,,2,2,1.0,4050.838999999978,0.39966065148428737,7.640425977808039e-05,1.6079952341177597,0.0,0.39996001066382303,5.5543212619417915e-05,1.608802652632417,0.0
19,21.0,easy,PEC,prediction,explanation,control,5,explanation,visible,3.0,a,0.0,a,2.0,,,1,1,1.0,4520.888999994029,0.2499375208263912,0.33302810613769973,0.21304800952092728,0.0,,,,
19,21.0,easy,PEC,prediction,explanation,control,5,explanation,hidden,3.0,a,,a,2.0,,,1,2,0.0,769.1050000059768,0.2502448259412571,0.33345810683433735,0.21316273954876588,0.0,0.9997500833055648,0.0003328894806924102,2.394344683687867,0.0
20,21.0,easy,CEP,control,explanation,prediction,1,explanation,visible,2.0,a,0.0,a,2.0,,,1,2,0.0,8476.542000000016,0.00012490006496152165,0.5995470352590229,1.9440146258163196,0.0,,,,
20,21.0,easy,CEP,control,explanation,prediction,1,explanation,hidden,2.0,a,,a,2.0,,,1,1,1.0,2392.3870001430623,0.00019158637718426366,0.5996636402898041,1.943515488854254,0.0,6.664889362836578e-05,0.999400479616307,2.396683838759984,0.0
20,21.0,easy,CEP,control,explanation,prediction,2,explanation,visible,3.0,a,1.0,b,0.0,,,1,1,1.0,4872.461999952328,2.0826391202932357e-05,0.49933427648323225,1.7904410718110297,0.0,,,,
20,21.0,easy,CEP,control,explanation,prediction,2,explanation,hidden,3.0,a,,b,2.0,,,1,2,0.0,735.8330000953865,0.00027064109882773816,0.49984998243039475,1.7888066534303253,0.0,8.330556481172943e-05,0.9997001199520191,2.3967899085559807,0.0
20,21.0,easy,CEP,control,explanation,prediction,3,explanation,visible,0.0,b,2.0,b,2.0,,,2,2,1.0,2044.685999952315,0.9993254197571345,6.660893625808499e-05,2.3966159622909906,0.0,,,,
20,21.0,easy,CEP,control,explanation,prediction,3,explanation,hidden,2.0,b,,b,2.0,,,2,2,1.0,2058.261999999988,0.5996636402898041,0.00019158637718426366,1.943515488854254,0.0,0.999400479616307,6.664889362836578e-05,2.3966838387599845,0.0
20,21.0,easy,CEP,control,explanation,prediction,4,explanation,visible,0.0,a,2.0,a,0.0,,,2,2,1.0,2746.6110000953777,0.5995470352590229,0.00012490006496152165,1.9440146258163196,0.0,,,,
20,21.0,easy,CEP,control,explanation,prediction,4,explanation,hidden,3.0,a,,a,2.0,,,1,2,0.0,623.2119999523275,0.00024982787145278894,0.6246586522021166,1.9780353702409748,0.0,0.00016655562958027982,0.999400479616307,2.3956859348960324,0.0
20,21.0,easy,CEP,control,explanation,prediction,5,explanation,visible,0.0,b,2.0,a,0.0,,,2,2,1.0,1884.0100000953528,0.5997267915014746,0.00012486262863771954,1.9442719276133786,0.0,,,,
20,21.0,easy,CEP,control,explanation,prediction,5,explanation,hidden,0.0,b,,a,0.0,,,2,1,0.0,4070.319000143034,0.5998766250416528,0.00017487924448358473,1.943986618493215,0.0,0.5999066915489203,0.00012493753123438283,1.944528246890651,0.0
21,21.0,easy,PEC,prediction,explanation,control,1,explanation,visible,3.0,a,1.0,b,0.0,,,1,1,1.0,5684.6970000089495,0.000993039793019159,0.49908519071118257,1.7803522080312353,0.0,,,,
21,21.0,easy,PEC,prediction,explanation,control,1,explanation,hidden,0.0,a,,a,0.0,,,2,2,1.0,1335.7030000089435,0.6469101414454814,0.0001774810747676194,2.0090014617005356,0.0,0.6469654199011998,6.664889362836577e-05,2.0101824391757845,0.0
21,21.0,easy,PEC,prediction,explanation,control,2,explanation,visible,0.0,a,2.0,a,0.0,,,2,2,1.0,1762.800000002957,0.6467229291141304,6.662668720001336e-05,2.0098579738314757,0.0,,,,
21,21.0,easy,PEC,prediction,explanation,control,2,explanation,hidden,2.0,b,,b,2.0,,,2,1,0.0,805.5790000119014,0.6471332965396023,0.0001254689789139328,2.009819522391502,0.0,0.9996251874062968,5.880969183721478e-05,2.3969665519550447,0.0
21,21.0,easy,PEC,prediction,explanation,control,3,explanation,visible,3.0,a,1.0,a,0.0,,,1,2,0.0,1164.499000005948,0.0009945248944342394,0.49833991814222134,1.7790927110394326,0.0,,,,
21,21.0,easy,PEC,prediction,explanation,control,3,explanation,hidden,3.0,a,,a,2.0,,,1,1,1.0,831.7669999999925,0.0011622976211620576,0.500310630796178,1.7807211049524263,0.0,0.00016655562958027982,0.9996251874062968,2.3958903052170717,0.0
21,21.0,easy,PEC,prediction,explanation,control,4,explanation,visible,0.0,a,2.0,b,2.0,,,2,2,1.0,512.2010000089649,0.9994253156679458,5.879009731527879e-05,2.3967849677499404,0.0,,,,
21,21.0,easy,PEC,prediction,explanation,control,4,explanation,hidden,0.0,a,,a,3.0,,,2,1,0.0,3734.7550000000047,0.35278478002262587,0.0001774810747676194,1.5084734896795877,0.0,0.35291696071512585,6.664889362836577e-05,1.509872346080866,0.0
21,21.0,easy,PEC,prediction,explanation,control,5,explanation,visible,2.0,a,0.0,a,2.0,,,1,1,1.0,671.6430000059772,6.662668720001336e-05,0.6467229291141304,2.0098579738314757,0.0,,,,
21,21.0,easy,PEC,prediction,explanation,control,5,explanation,hidden,0.0,b,,a,0.0,,,2,2,1.0,1672.4360000119195,0.646916280767529,0.00019132817386047972,2.0088714651785513,0.0,0.6469654199011998,6.664889362836577e-05,2.0101824391757845,0.0
22,21.0,easy,PEC,prediction,explanation,control,1,explanation,visible,3.0,a,1.0,a,0.0,,,1,2,0.0,5533.0,9.981037525109719e-05,0.4271891588415045,1.6613916273564153,0.0,,,,
22,21.0,easy,PEC,prediction,explanation,control,1,explanation,hidden,3.0,a,,b,0.0,,,1,2,0.0,1238.0,0.00019961563451780016,0.42809394994005967,1.6621098507096057,0.0,9.996001599360256e-05,0.00016655562958027982,0.0006650699027413634,0.0
22,21.0,easy,PEC,prediction,explanation,control,2,explanation,visible,0.0,a,2.0,b,2.0,,,2,2,1.0,3700.0,0.9992719217281676,6.245315753007119e-05,2.396608827678272,0.0,,,,
22,21.0,easy,PEC,prediction,explanation,control,2,explanation,hidden,3.0,a,,a,2.0,,,1,2,0.0,1378.0,0.0002426989367542696,0.5716431889471836,1.9021329957071915,0.0,0.00014277555682467162,0.9997001199520191,2.3961958801114487,0.0
22,21.0,easy,PEC,prediction,explanation,control,3,explanation,visible,0.0,b,2.0,b,2.0,,,2,1,0.0,1727.0,0.99907222046144,6.246564108672951e-05,2.396427019567741,0.0,,,,
22,21.0,easy,PEC,prediction,explanation,control,3,explanation,hidden,0.0,a,,a,3.0,,,2,1,0.0,825.0,0.37485639296246165,0.0003093924404412262,1.5547530936605825,0.0,0.3749687578105474,0.00014277555682467162,1.5566521055586016,0.0
22,21.0,easy,PEC,prediction,explanation,control,4,explanation,visible,0.0,b,2.0,a,0.0,,,2,1,0.0,3997.0,0.624594028458242,0.00014273274128384053,1.9790150415334498,0.0,,,,
22,21.0,easy,PEC,prediction,explanation,control,4,explanation,hidden,3.0,a,,b,2.0,,,1,2,0.0,595.0,0.00029987684218010986,0.5711734070571248,1.9008630672971587,0.0,9.996001599360256e-05,0.9995003331112592,2.3964418260804274,0.0
22,21.0,easy,PEC,prediction,explanation,control,5,explanation,visible,3.0,a,0.0,a,2.0,,,1,2,0.0,1967.0,9.991006928341255e-05,0.5710736978766459,1.9027101759295877,0.0,,,,
22,21.0,easy,PEC,prediction,explanation,control,5,explanation,hidden,2.0,b,,b,2.0,,,2,1,0.0,1496.0,0.6248188782420263,0.00020525346193316863,1.978701183493051,0.0,0.9997001199520191,6.248437890527369e-05,2.396997968750376,0.0
23,21.0,easy,EPC,explanation,prediction,control,1,explanation,visible,0.0,b,2.0,b,2.0,,,2,2,1.0,6913.02899999998,0.9994413170862645,9.082156303310678e-05,2.396479446766747,0.0,,,,
23,21.0,easy,EPC,explanation,prediction,control,1,explanation,hidden,3.0,a,,b,2.0,,,1,2,0.0,8148.305999999982,0.0009984245722397607,0.3333569398028492,1.456456811340894,0.0,0.00033288948069241014,0.0003328894806924102,0.0,0.0
23,21.0,easy,EPC,explanation,prediction,control,2,explanation,visible,3.0,a,1.0,b,0.0,,,1,2,0.0,2193.7609999999986,0.0003318947910090664,0.6657235722124,2.032337594478478,0.0,,,,
23,21.0,easy,EPC,explanation,prediction,control,2,explanation,hidden,2.0,a,,a,2.0,,,1,2,0.0,3400.4530000238447,0.00013433798605454685,0.5452624431183418,1.8631444582734231,0.0,9.087604507451837e-05,0.999400479616307,2.3964417579131925,0.0
23,21.0,easy,EPC,explanation,prediction,control,3,explanation,visible,3.0,a,1.0,a,0.0,,,1,2,0.0,1244.5490000238642,0.0003325570344733432,0.6643978715384964,2.0305981890228173,0.0,,,,
23,21.0,easy,EPC,explanation,prediction,control,3,explanation,hidden,3.0,a,,a,2.0,,,1,2,0.0,1874.344999999972,0.0004992772580644849,0.3339083314374692,1.4626827578935233,0.0,0.00016655562958027982,0.0009960159362549805,0.00824671310433224,0.0
23,21.0,easy,EPC,explanation,prediction,control,4,explanation,visible,2.0,a,0.0,a,2.0,,,1,2,0.0,5156.4250000238535,4.345208108718162e-05,0.5450201997616737,1.8636770213432166,0.0,,,,
23,21.0,easy,EPC,explanation,prediction,control,4,explanation,hidden,2.0,b,,b,2.0,,,2,2,1.0,1421.774000023841,0.5452624431183418,0.00013433798605454685,1.8631444582734231,0.0,0.999400479616307,9.087604507451837e-05,2.3964417579131925,0.0
23,21.0,easy,EPC,explanation,prediction,control,5,explanation,visible,0.0,b,2.0,a,0.0,,,2,2,1.0,859.82300002384,0.5451135597646751,4.3444639176504394e-05,1.8638218249140512,0.0,,,,
23,21.0,easy,EPC,explanation,prediction,control,5,explanation,hidden,0.0,b,,a,0.0,,,2,2,1.0,547.0940000238479,0.5453037970465006,0.0002427940959710339,1.8621260248201645,0.0,0.5453471464921846,4.347070074769606e-05,1.8641835850897877,0.0
24,21.0,easy,EPC,explanation,prediction,control,1,explanation,visible,3.0,a,1.0,a,0.0,,,1,2,0.0,1558.386999999988,9.986018908016023e-05,0.14993005595523579,0.9150128129308195,0.0,,,,
24,21.0,easy,EPC,explanation,prediction,control,1,explanation,hidden,2.0,b,,b,2.0,,,2,2,1.0,619.9870000238298,0.5446897689145624,0.00014086031266498343,1.862191424697504,0.0,0.9985029940119762,9.087604507451837e-05,2.39562508360062,0.0
24,21.0,easy,EPC,explanation,prediction,control,2,explanation,visible,0.0,a,2.0,a,0.0,,,2,2,1.0,791.0150000059512,0.5445307585483341,4.997126511729139e-05,1.8628527720836818,0.0,,,,
24,21.0,easy,EPC,explanation,prediction,control,2,explanation,hidden,3.0,a,,b,0.0,,,1,1,1.0,1143.9420000119137,0.00012497492122651207,0.599360156524329,1.9437467000119402,0.0,9.996001599360256e-05,0.9990013315579229,2.3959878791310807,0.0
24,21.0,easy,EPC,explanation,prediction,control,3,explanation,visible,0.0,a,2.0,b,2.0,,,2,1,0.0,991.8830000119342,0.9983532485119744,9.08419835883585e-05,2.395489096824579,0.0,,,,
24,21.0,easy,EPC,explanation,prediction,control,3,explanation,hidden,3.0,a,,a,2.0,,,1,1,1.0,896.4210000178718,0.00029974510916001395,0.5494113591143034,1.8679031975423102,0.0,0.00019984012789768185,0.25,1.2507665613639307,0.0
24,21.0,easy,EPC,explanation,prediction,control,4,explanation,visible,3.0,a,0.0,a,2.0,,,1,2,0.0,3107.250000011933,9.992254972074139e-05,0.3992814730251727,1.6070010983283989,0.0,,,,
24,21.0,easy,EPC,explanation,prediction,control,4,explanation,hidden,2.0,a,,a,2.0,,,1,1,1.0,560.9160000178672,0.00014086031266498343,0.5446897689145624,1.862191424697504,0.0,9.087604507451837e-05,0.9985029940119762,2.39562508360062,0.0
24,21.0,easy,EPC,explanation,prediction,control,5,explanation,visible,0.0,b,2.0,a,0.0,,,2,1,0.0,863.3290000119305,0.5451427435137393,4.991516666726536e-05,1.8638023869640485,0.0,,,,
24,21.0,easy,EPC,explanation,prediction,control,5,explanation,hidden,0.0,a,,a,0.0,,,2,1,0.0,615.6340000178898,0.5452288655169032,8.128048076096975e-05,1.8636224234684104,0.0,0.5453471464921846,4.9990001999600085e-05,1.8641184225279397,0.0
25,21.0,easy,CPE,control,prediction,explanation,1,explanation,visible,0.0,b,2.0,a,0.0,,,2,2,1.0,4119.828000005917,0.599649735513134,8.326988281652166e-05,1.9445772936593289,0.0,,,,
25,21.0,easy,CPE,control,prediction,explanation,1,explanation,hidden,0.0,a,,a,3.0,,,2,1,0.0,5334.409000011976,0.39978888349579494,0.00022605983890501595,1.6067575431794563,0.0,0.39996001066382303,8.330556481172943e-05,1.6085252217134327,0.0
25,21.0,easy,CPE,control,prediction,explanation,2,explanation,visible,2.0,a,0.0,a,2.0,,,1,2,0.0,6554.88299998804,8.326988281652166e-05,0.599649735513134,1.9445772936593289,0.0,,,,
25,21.0,easy,CPE,control,prediction,explanation,2,explanation,hidden,0.0,a,,a,0.0,,,2,2,1.0,4071.148000011919,0.5998396887602127,0.00022594107708350937,1.9434242446297598,0.0,0.5999066915489203,8.330556481172943e-05,1.9449441335332678,0.0
25,21.0,easy,CPE,control,prediction,explanation,3,explanation,visible,0.0,b,2.0,a,3.0,,,2,2,1.0,6197.998999988078,0.3997886971241327,8.326988281652166e-05,1.6081828650325516,0.0,,,,
25,21.0,easy,CPE,control,prediction,explanation,3,explanation,hidden,0.0,b,,b,2.0,,,2,1,0.0,2781.712000011932,0.9994646434498288,0.00020950073517811966,2.395315650670447,0.0,0.9997500833055648,6.664889362836578e-05,2.3970017830591126,0.0
25,21.0,easy,CPE,control,prediction,explanation,4,explanation,visible,3.0,a,1.0,a,0.0,,,1,2,0.0,4954.183999994071,0.00012456421191794548,0.6657235722124,2.034406179886539,0.0,,,,
25,21.0,easy,CPE,control,prediction,explanation,4,explanation,hidden,3.0,a,,b,2.0,,,1,1,1.0,4166.401999994065,0.00037472261788131943,0.3337988359923153,1.4636705063023931,0.0,0.00012493753123438283,0.0009960159362549805,0.008662288406988131,0.0
25,21.0,easy,CPE,control,prediction,explanation,5,explanation,visible,2.0,a,0.0,b,2.0,,,1,2,0.0,4689.83299998811,8.326988281652166e-05,0.599649735513134,1.9445772936593289,0.0,,,,
25,21.0,easy,CPE,control,prediction,explanation,5,explanation,hidden,3.0,a,,a,2.0,,,1,2,0.0,1546.6319999881089,0.00029150998631074815,0.3335234317397516,1.463864802029089,0.0,0.00016655562958027982,0.0003328894806924102,0.001659195507293582,0.0
26,21.0,easy,ECP,explanation,control,prediction,1,explanation,visible,2.0,a,0.0,b,2.0,,,1,2,0.0,5697.0,9.991006928341255e-05,0.5879953802646218,1.9276133352671312,0.0,,,,
26,21.0,easy,ECP,explanation,control,prediction,1,explanation,hidden,2.0,a,,a,2.0,,,1,2,0.0,3178.0,0.00015877236754960802,0.5880235255869263,1.927066380952868,0.0,5.880969183721478e-05,0.9995003331112592,2.396853002915659,0.0
26,21.0,easy,ECP,explanation,control,prediction,2,explanation,visible,2.0,a,0.0,a,2.0,,,1,1,1.0,5771.0,9.993276408084531e-05,0.5878618461212481,1.927418998079538,0.0,,,,
26,21.0,easy,ECP,explanation,control,prediction,2,explanation,hidden,0.0,b,,b,2.0,,,2,1,0.0,3242.0,0.9995185174201617,0.00022536975310083604,2.395206303774626,0.0,0.9997001199520191,5.880969183721478e-05,2.397034693348681,0.0
26,21.0,easy,ECP,explanation,control,prediction,3,explanation,visible,3.0,a,1.0,b,0.0,,,1,1,1.0,7517.0,0.0002490039840637452,0.5706745184984651,1.9006268191694062,0.0,,,,
26,21.0,easy,ECP,explanation,control,prediction,3,explanation,hidden,3.0,a,,b,2.0,,,1,1,1.0,4872.0,0.0007491126918707002,0.42854282343856265,1.6574904365342134,0.0,0.0002497502497502498,0.0003328894806924102,0.0008289773812430689,0.0
26,21.0,easy,ECP,explanation,control,prediction,4,explanation,visible,0.0,a,2.0,b,2.0,,,2,2,1.0,7044.0,0.9992006029034088,5.879365866059613e-05,2.39658052015315,0.0,,,,
26,21.0,easy,ECP,explanation,control,prediction,4,explanation,hidden,2.0,b,,b,2.0,,,2,2,1.0,2038.0,0.5880235255869263,0.00015877236754960802,1.927066380952868,0.0,0.9995003331112592,5.880969183721478e-05,2.396853002915659,0.0
26,21.0,easy,ECP,explanation,control,prediction,5,explanation,visible,3.0,a,1.0,a,0.0,,,1,2,0.0,3876.0,0.0002495008320574234,0.569538095476461,1.8989259779532803,0.0,,,,
26,21.0,easy,ECP,explanation,control,prediction,5,explanation,hidden,0.0,a,,a,3.0,,,2,2,1.0,1949.0,0.41152102073745483,0.00019084637011652184,1.6303118499220424,0.0,0.41172665255234064,9.996001599360256e-05,1.631621313859729,0.0
27,21.0,easy,PEC,prediction,explanation,control,1,explanation,visible,0.0,a,2.0,b,2.0,,,2,2,1.0,10004.0,0.9993425504865837,7.687059269503976e-05,2.3965290021159498,0.0,,,,
27,21.0,easy,PEC,prediction,explanation,control,1,explanation,hidden,0.0,b,,a,0.0,,,2,2,1.0,3179.0,0.6152161520062921,0.0002189615283066981,1.965227399948521,0.0,0.6152722239310982,5.262050094716902e-05,1.9669669504041891,0.0
27,21.0,easy,PEC,prediction,explanation,control,2,explanation,visible,0.0,b,2.0,a,0.0,,,2,2,1.0,8750.0,0.615041612153013,5.2594208225176764e-05,1.9666447500046436,0.0,,,,
27,21.0,easy,PEC,prediction,explanation,control,2,explanation,hidden,2.0,b,,b,2.0,,,2,2,1.0,6993.0,0.6151185717351041,0.00012955098077301657,1.9659835061924642,0.0,0.9995003331112592,7.689941556444173e-05,2.3966722283416746,0.0
27,21.0,easy,PEC,prediction,explanation,control,3,explanation,visible,2.0,a,0.0,a,2.0,,,1,1,1.0,9169.0,5.260077812072705e-05,0.6149647927732379,1.9665372451293464,0.0,,,,
27,21.0,easy,PEC,prediction,explanation,control,3,explanation,hidden,3.0,b,,a,0.0,,,2,2,1.0,4627.0,0.598181059321693,0.00039930508588305574,1.9393231806553957,0.0,0.9970119521912354,0.00019984012789768188,2.3931787624393155,0.0
27,21.0,easy,PEC,prediction,explanation,control,4,explanation,visible,3.0,a,1.0,b,0.0,,,1,1,1.0,7207.0,0.0001995409660295716,0.5979282311202831,1.940952669268456,0.0,,,,
27,21.0,easy,PEC,prediction,explanation,control,4,explanation,hidden,2.0,a,,a,2.0,,,1,1,1.0,1507.0000000001164,0.00012955098077301657,0.6151185717351041,1.9659835061924642,0.0,7.689941556444173e-05,0.9995003331112592,2.3966722283416746,0.0
27,21.0,easy,PEC,prediction,explanation,control,5,explanation,visible,3.0,a,1.0,a,0.0,,,1,1,1.0,1581.0,0.00019924299604141398,0.5988224390547442,1.9422360548915052,0.0,,,,
27,21.0,easy,PEC,prediction,explanation,control,5,explanation,hidden,3.0,a,,b,0.0,,,1,2,0.0,12103.0,0.00039930508588305574,0.598181059321693,1.9393231806553957,0.0,0.00019984012789768188,0.9970119521912354,2.3931787624393155,0.0
28,21.0,easy,PCE,prediction,control,explanation,1,explanation,visible,0.0,a,2.0,a,0.0,,,2,2,1.0,6209.951999976183,0.6106645565573758,0.00016651400454789555,1.9593665861913405,0.0,,,,
28,21.0,easy,PCE,prediction,control,explanation,1,explanation,hidden,3.0,b,,a,0.0,,,2,2,1.0,1712.7140000000363,0.5705739547929716,0.00028532853556524564,1.9001145861638111,0.0,0.9985029940119762,0.00014277555682467162,2.395106694084201,0.0
28,21.0,easy,PCE,prediction,control,explanation,2,explanation,visible,2.0,a,0.0,b,2.0,,,1,1,1.0,5935.414999964181,0.0001664557760853276,0.6108781752079827,1.9596677123281536,0.0,,,,
28,21.0,easy,PCE,prediction,control,explanation,2,explanation,hidden,2.0,a,,a,2.0,,,1,1,1.0,2623.539999952307,0.0002221363557274358,0.6107756191550451,1.9589677091574984,0.0,5.5543212619417915e-05,0.999400479616307,2.396794827760289,0.0
28,21.0,easy,PCE,prediction,control,explanation,3,explanation,visible,3.0,a,0.0,a,2.0,,,1,2,0.0,4652.656999952276,0.00014273987482946385,0.4282125698641544,1.6629022301553689,0.0,,,,
28,21.0,easy,PCE,prediction,control,explanation,3,explanation,hidden,0.0,b,,b,2.0,,,2,1,0.0,3493.679999952321,0.9993338503769903,0.0002554283507530189,2.394738471918149,0.0,0.9995003331112592,5.5543212619417915e-05,2.396885649041943,0.0
28,21.0,easy,PCE,prediction,control,explanation,4,explanation,visible,0.0,b,2.0,a,3.0,,,2,2,1.0,3091.07799996424,0.3887608494346956,0.0001664557760853276,1.5850399494769365,0.0,,,,
28,21.0,easy,PCE,prediction,control,explanation,4,explanation,hidden,0.0,a,,a,0.0,,,2,1,0.0,652.6269999642391,0.6109497395600951,0.0002497234022233953,1.9589374304128977,0.0,0.6110308820262165,0.00016655562958027982,1.9598815067128,0.0
28,21.0,easy,PCE,prediction,control,explanation,5,explanation,visible,2.0,a,0.0,a,2.0,,,1,2,0.0,5572.040999964229,0.00016651400454789555,0.6106645565573758,1.9593665861913403,0.0,,,,
28,21.0,easy,PCE,prediction,control,explanation,5,explanation,hidden,2.0,b,,b,2.0,,,2,1,0.0,3697.869999988121,0.6107756191550451,0.0002221363557274358,1.9589677091574984,0.0,0.999400479616307,5.5543212619417915e-05,2.396794827760289,0.0
29,21.0,easy,EPC,explanation,prediction,control,1,explanation,visible,3.0,a,1.0,a,0.0,,,1,2,0.0,3344.872999994026,8.322237017310254e-05,0.7135924898002785,2.0954575502824397,0.0,,,,
29,21.0,easy,EPC,explanation,prediction,control,1,explanation,hidden,0.0,b,,b,2.0,,,2,2,1.0,731.8990000000049,0.9992863460583846,0.00015963749946117835,2.3956511837988876,0.0,0.999571673329526,5.5543212619417915e-05,2.3969505311541095,0.0
29,21.0,easy,EPC,explanation,prediction,control,2,explanation,visible,0.0,b,2.0,a,3.0,,,2,2,1.0,1132.647999994049,0.3331720513025153,0.00014273987482946385,1.4645384292288197,0.0,,,,
29,21.0,easy,EPC,explanation,prediction,control,2,explanation,hidden,2.0,a,,a,2.0,,,1,2,0.0,396.7960000000021,0.00023394809829167554,0.6665739941700275,2.034424294127343,0.0,5.5543212619417915e-05,0.9997500833055648,2.3971127720594176,0.0
29,21.0,easy,EPC,explanation,prediction,control,3,explanation,visible,0.0,b,2.0,b,2.0,,,2,1,0.0,1734.5899999999965,0.9991435301227887,5.552933144332176e-05,2.396561221349533,0.0,,,,
29,21.0,easy,EPC,explanation,prediction,control,3,explanation,hidden,2.0,b,,b,2.0,,,2,2,1.0,4158.106999994052,0.6665739941700275,0.00023394809829167554,2.034424294127343,0.0,0.9997500833055648,5.5543212619417915e-05,2.3971127720594176,0.0
29,21.0,easy,EPC,explanation,prediction,control,4,explanation,visible,3.0,a,0.0,a,2.0,,,1,2,0.0,374.6139999940351,0.0003327468952495094,0.28562248953375713,1.346366753349464,0.0,,,,
29,21.0,easy,EPC,explanation,prediction,control,4,explanation,hidden,0.0,a,,a,0.0,,,2,2,1.0,865.2639999999956,0.6664521448273093,0.0002854637846932234,2.03375150590594,0.0,0.6665740946456343,0.00014277555682467162,2.03533443656187,0.0
29,21.0,easy,EPC,explanation,prediction,control,5,explanation,visible,2.0,a,0.0,b,2.0,,,1,1,1.0,910.5419999999868,0.00014273987482946385,0.6662885831830505,2.0349622722683924,0.0,,,,
29,21.0,easy,EPC,explanation,prediction,control,5,explanation,hidden,0.0,a,,a,3.0,,,2,2,1.0,365.2069999999949,0.3332523681705735,0.00028538779991150174,1.4633003952321975,0.0,0.33331481892912684,0.00014277555682467162,1.464867605038115,0.0
30,21.0,easy,PCE,prediction,control,explanation,1,explanation,visible,0.0,a,2.0,b,2.0,,,2,1,0.0,2426.0,0.9983727771374311,9.084576651663036e-05,2.3955068387848018,0.0,,,,
30,21.0,easy,PCE,prediction,control,explanation,1,explanation,hidden,0.0,a,,a,3.0,,,2,2,1.0,495.0,0.3630511565102362,0.0001546285127136311,1.5311222603583807,0.0,0.3635950563431479,4.347070074769606e-05,1.5334066492452376,0.0
30,21.0,easy,PCE,prediction,control,explanation,2,explanation,visible,0.0,b,2.0,b,2.0,,,2,2,1.0,948.0000000000582,0.9995364460981464,9.074000309087389e-05,2.3965667827486876,0.0,,,,
30,21.0,easy,PCE,prediction,control,explanation,2,explanation,hidden,3.0,a,,b,0.0,,,1,1,1.0,794.0,0.00033262071252485845,0.5990739054516081,1.9412655933820033,0.0,0.00016655562958027982,0.9985029940119762,2.39486926058346,0.0
30,21.0,easy,PCE,prediction,control,explanation,3,explanation,visible,2.0,a,0.0,a,2.0,,,1,2,0.0,3444.0,4.3456216951356306e-05,0.635270761639208,1.994634160796196,0.0,,,,
30,21.0,easy,PCE,prediction,control,explanation,3,explanation,hidden,3.0,a,,b,2.0,,,1,1,1.0,1025.0,0.0004994785028243251,0.4000461814586216,1.6045479186151994,0.0,0.00016655562958027982,0.0004990019960079841,0.003313440278630421,0.0
30,21.0,easy,PCE,prediction,control,explanation,4,explanation,visible,3.0,a,1.0,a,0.0,,,1,1,1.0,539.0,0.00016630629480545906,0.5979282311202831,1.9412844091531045,0.0,,,,
30,21.0,easy,PCE,prediction,control,explanation,4,explanation,hidden,0.0,b,,b,2.0,,,2,2,1.0,2662.0,0.9996474707056072,0.0005899244626082922,2.3916928280420606,0.0,0.9998695878977569,9.087604507451837e-05,2.396868361535452,0.0
30,21.0,easy,PCE,prediction,control,explanation,5,explanation,visible,3.0,a,1.0,b,0.0,,,1,2,0.0,1867.0,0.00016605795339627504,0.5988224390547442,1.9425673002996806,0.0,,,,
30,21.0,easy,PCE,prediction,control,explanation,5,explanation,hidden,2.0,a,,a,2.0,,,1,2,0.0,430.0,0.00013435078984663115,0.635422275150457,1.9939320660639703,0.0,9.087604507451837e-05,0.9985029940119762,2.39562508360062,0.0
31,21.0,easy,PEC,prediction,explanation,control,1,explanation,visible,0.0,b,2.0,a,3.0,,,2,2,1.0,1617.9550000000163,0.39986005398005164,7.13368560095632e-05,1.6084448669834266,0.0,,,,
31,21.0,easy,PEC,prediction,explanation,control,1,explanation,hidden,3.0,a,,b,2.0,,,1,2,0.0,2082.8649999999907,0.000599357234732854,0.3334163958546317,1.4605530508257303,0.0,0.00019984012789768188,0.0003328894806924102,0.0013269591709783339,0.0
31,21.0,easy,PEC,prediction,explanation,control,2,explanation,visible,2.0,a,0.0,a,2.0,,,1,1,1.0,1368.333000035782,7.139032300096864e-05,0.5993075836678795,1.9442068447965233,0.0,,,,
31,21.0,easy,PEC,prediction,explanation,control,2,explanation,hidden,0.0,b,,b,2.0,,,2,2,1.0,366.6920000119135,0.9996192343281999,0.0003995548795587761,2.393561474474512,0.0,0.9997857754927164,6.664889362836578e-05,2.397034237348968,0.0
31,21.0,easy,PEC,prediction,explanation,control,3,explanation,visible,0.0,a,2.0,b,2.0,,,2,2,1.0,1976.916000035766,0.9987873209898943,6.663223695718241e-05,2.3961261287302875,0.0,,,,
31,21.0,easy,PEC,prediction,explanation,control,3,explanation,hidden,0.0,a,,a,0.0,,,2,1,0.0,503.4230000357493,0.5997511131125909,0.00015449134614324,1.944010811824848,0.0,0.5999066915489203,7.140816909454442e-05,1.9450630155271942,0.0
31,21.0,easy,PEC,prediction,explanation,control,4,explanation,visible,0.0,a,2.0,a,0.0,,,2,1,0.0,369.0900000238325,0.5993075836678795,7.139032300096864e-05,1.9442068447965233,0.0,,,,
31,21.0,easy,PEC,prediction,explanation,control,4,explanation,hidden,0.0,a,,a,3.0,,,2,2,1.0,322.6270000357763,0.3995607772146499,0.00015475664964485856,1.6070127105545449,0.0,0.39996001066382303,7.140816909454442e-05,1.608644103707359,0.0
31,21.0,easy,PEC,prediction,explanation,control,5,explanation,visible,2.0,a,0.0,b,2.0,,,1,2,0.0,4753.500000011933,7.13368560095632e-05,0.5997567648515988,1.9448494956534523,0.0,,,,
31,21.0,easy,PEC,prediction,explanation,control,5,explanation,hidden,3.0,a,,a,2.0,,,1,2,0.0,1269.3830000357702,0.00036632580439865405,0.3337752681252466,1.463699833964351,0.0,0.00016655562958027982,0.0009960159362549805,0.00824671310433224,0.0
32,21.0,easy,CEP,control,explanation,prediction,1,explanation,visible,2.0,a,0.0,a,2.0,,,1,2,0.0,6125.600999618531,9.085787471093376e-05,0.610573066680043,1.9599934284178309,0.0,,,,
32,21.0,easy,CEP,control,explanation,prediction,1,explanation,hidden,0.0,b,,a,0.0,,,2,2,1.0,3994.641999237007,0.6110038688429384,0.00021574545619203254,1.9593525546121577,0.0,0.6110308820262165,9.087604507451837e-05,1.96063732972996,0.0
32,21.0,easy,CEP,control,explanation,prediction,2,explanation,visible,3.0,a,1.0,b,0.0,,,1,1,1.0,2720.2249998092884,0.0625,0.5708169971091157,1.4178183664228188,0.0,,,,
32,21.0,easy,CEP,control,explanation,prediction,2,explanation,hidden,3.0,a,,b,0.0,,,1,1,1.0,1638.596999237081,0.1250851565737062,0.5709939693618049,1.0922813451307534,0.0,0.0002497502497502498,0.999250749250749,2.3947195147531968,0.0
32,21.0,easy,CEP,control,explanation,prediction,3,explanation,visible,0.0,a,2.0,a,0.0,,,2,2,1.0,2586.76899942779,0.610573066680043,9.085787471093376e-05,1.9599934284178309,0.0,,,,
32,21.0,easy,CEP,control,explanation,prediction,3,explanation,hidden,0.0,a,,a,0.0,,,2,1,0.0,1946.8729996185284,0.6109296568009659,0.0001241989671029459,1.9601620842985061,0.0,0.6110308820262165,9.087604507451837e-05,1.96063732972996,0.0
32,21.0,easy,CEP,control,explanation,prediction,4,explanation,visible,2.0,a,0.0,b,2.0,,,1,2,0.0,1419.1649994277395,9.080795612965733e-05,0.610908708429437,1.9604661692314063,0.0,,,,
32,21.0,easy,CEP,control,explanation,prediction,4,explanation,hidden,0.0,b,,b,2.0,,,2,2,1.0,2120.771999618504,0.9996274030986912,0.0003052999432607346,2.3945081424689048,0.0,0.9997273718647764,5.5543212619417915e-05,2.397092120389871,0.0
32,21.0,easy,CEP,control,explanation,prediction,5,explanation,visible,3.0,a,0.0,a,2.0,,,1,1,1.0,3383.87799923704,0.24995001332977873,0.42814841497736983,0.4115870079543777,0.0,,,,
32,21.0,easy,CEP,control,explanation,prediction,5,explanation,hidden,0.0,a,,a,3.0,,,2,1,0.0,1230.5879994278075,0.3885667940560509,0.0001241989671029459,1.5850647900781976,0.0,0.38885803154854476,9.087604507451837e-05,1.5859935895250328,0.0
33,21.0,easy,PCE,prediction,control,explanation,1,explanation,visible,0.0,b,2.0,a,3.0,,,2,1,0.0,7179.117000005965,0.39984007063663474,0.00012486262863771954,1.6078701551407903,0.0,,,,
33,21.0,easy,PCE,prediction,control,explanation,1,explanation,hidden,3.0,a,,a,2.0,,,1,2,0.0,1407.976999994018,0.0002574104191070805,0.33357704576310954,1.4643285271385516,0.0,0.00016655562958027982,0.0004990019960079841,0.003313440278630421,0.0
33,21.0,easy,PCE,prediction,control,explanation,2,explanation,visible,0.0,a,2.0,b,2.0,,,2,1,0.0,1410.491999994032,0.9990258917303938,6.662890695494664e-05,2.3963432602947936,0.0,,,,
33,21.0,easy,PCE,prediction,control,explanation,2,explanation,hidden,3.0,a,,b,0.0,,,1,1,1.0,1099.881999988051,0.0001816207873078776,0.6655802271053063,2.0336492665903476,0.0,9.087604507451837e-05,0.9985029940119762,2.39562508360062,0.0
33,21.0,easy,PCE,prediction,control,explanation,3,explanation,visible,0.0,b,2.0,a,0.0,,,2,2,1.0,2662.451999994053,0.5997267915014746,0.00012486262863771954,1.9442719276133786,0.0,,,,
33,21.0,easy,PCE,prediction,control,explanation,3,explanation,hidden,2.0,b,,b,2.0,,,2,2,1.0,2931.186999994039,0.5996500392136946,0.00019160713087183434,1.94349584207565,0.0,0.999400479616307,6.664889362836578e-05,2.3966838387599845,0.0
33,21.0,easy,PCE,prediction,control,explanation,4,explanation,visible,0.0,a,2.0,a,0.0,,,2,2,1.0,2873.941999994044,0.5995470352590229,0.00012490006496152165,1.9440146258163196,0.0,,,,
33,21.0,easy,PCE,prediction,control,explanation,4,explanation,hidden,3.0,b,,a,0.0,,,2,2,1.0,279.59700000000885,0.6655802271053063,0.0001816207873078776,2.0336492665903476,0.0,0.9985029940119762,9.087604507451837e-05,2.39562508360062,0.0
33,21.0,easy,PCE,prediction,control,explanation,5,explanation,visible,2.0,a,0.0,a,2.0,,,1,2,0.0,1062.7619999940507,0.00012490006496152165,0.5995470352590229,1.9440146258163196,0.0,,,,
33,21.0,easy,PCE,prediction,control,explanation,5,explanation,hidden,0.0,b,,b,2.0,,,2,2,1.0,324.3519999940181,0.9994253788092794,0.0002665221412096452,2.3947110774005957,0.0,0.9996251874062968,6.664889362836578e-05,2.3968882090810237,0.0
34,21.0,easy,ECP,explanation,control,prediction,1,explanation,visible,2.0,a,0.0,b,2.0,,,1,2,0.0,4001.804999999993,4.542357449151333e-05,0.6661947821745406,2.035812103639665,0.0,,,,
34,21.0,easy,ECP,explanation,control,prediction,1,explanation,hidden,0.0,b,,b,2.0,,,2,2,1.0,2336.555999964243,0.9995307339715913,0.0002498527431163147,2.39497316499508,0.0,0.9998636611525177,8.330556481172944e-05,2.3969386118599765,0.0
34,21.0,easy,ECP,explanation,control,prediction,2,explanation,visible,0.0,b,2.0,a,0.0,,,2,1,0.0,1965.6029999761668,0.6661947821745406,4.542357449151333e-05,2.035812103639665,0.0,,,,
34,21.0,easy,ECP,explanation,control,prediction,2,explanation,hidden,2.0,b,,b,2.0,,,2,2,1.0,728.2819999642379,0.6663447671819388,0.00012874954129512927,2.0351753028968433,0.0,0.9995003331112592,8.330556481172944e-05,2.396608218122959,0.0
34,21.0,easy,ECP,explanation,control,prediction,3,explanation,visible,3.0,a,1.0,b,0.0,,,1,1,1.0,2291.569999952306,0.00019924299604141398,0.5988224390547442,1.9422360548915052,0.0,,,,
34,21.0,easy,ECP,explanation,control,prediction,3,explanation,hidden,3.0,a,,b,0.0,,,1,1,1.0,502.0009999642498,0.00039900568219816484,0.5991021524309976,1.9406445687283342,0.0,0.00019984012789768188,0.9985029940119762,2.3945370242471444,0.0
34,21.0,easy,ECP,explanation,control,prediction,4,explanation,visible,0.0,b,2.0,b,2.0,,,2,2,1.0,1584.6379999761702,0.9993640623877846,8.326393977934517e-05,2.3964846875716934,0.0,,,,
34,21.0,easy,ECP,explanation,control,prediction,4,explanation,hidden,0.0,a,,a,3.0,,,2,2,1.0,436.0639999761479,0.33313916719402764,0.00021207298341592074,1.4637704084105005,0.0,0.33330556481172946,4.544628249409199e-05,1.4658186259484494,0.0
34,21.0,easy,ECP,explanation,control,prediction,5,explanation,visible,0.0,a,2.0,a,0.0,,,2,1,0.0,2344.445999952324,0.6661947821745406,4.542357449151333e-05,2.035812103639665,0.0,,,,
34,21.0,easy,ECP,explanation,control,prediction,5,explanation,hidden,0.0,b,,a,0.0,,,2,2,1.0,832.4949999761593,0.6664277184912569,0.00021154255316385066,2.0344570159786524,0.0,0.6665278240586472,4.544628249409199e-05,2.0362464522186996,0.0
35,21.0,easy,CEP,control,explanation,prediction,1,explanation,visible,0.0,a,2.0,b,2.0,,,2,2,1.0,5770.5,0.9993129736386689,7.138140441347451e-05,2.3965569488541867,0.0,,,,
35,21.0,easy,CEP,control,explanation,prediction,1,explanation,hidden,0.0,a,,a,0.0,,,2,1,0.0,3154.4400000000023,0.6426567010455451,0.00018725307607349222,2.0031929278405105,0.0,0.6427449300199943,6.248437890527369e-05,2.0045578537182775,0.0
35,21.0,easy,CEP,control,explanation,prediction,2,explanation,visible,3.0,a,1.0,a,0.0,,,1,2,0.0,13120.97999999998,0.00016630629480545906,0.5988224390547442,1.942564821005732,0.0,,,,
35,21.0,easy,CEP,control,explanation,prediction,2,explanation,hidden,0.0,b,,a,0.0,,,2,2,1.0,1129.7000000000116,0.6426787472660471,0.00022881493389102003,2.0028078572632264,0.0,0.6427449300199943,6.248437890527369e-05,2.0045578537182775,0.0
35,21.0,easy,CEP,control,explanation,prediction,3,explanation,visible,2.0,a,0.0,a,2.0,,,1,1,1.0,2672.359999999986,6.246095897315027e-05,0.6424237716605573,2.0041256003858328,0.0,,,,
35,21.0,easy,CEP,control,explanation,prediction,3,explanation,hidden,3.0,a,,a,2.0,,,1,1,1.0,1084.179999999993,0.00036632848185965826,0.40017938662033214,1.606140029998486,0.0,0.00019984012789768185,0.0004990019960079841,0.00298120394231516,0.0
35,21.0,easy,CEP,control,explanation,prediction,4,explanation,visible,3.0,a,1.0,b,0.0,,,1,1,1.0,3570.8400000000256,0.00016630629480545906,0.5988224390547442,1.942564821005732,0.0,,,,
35,21.0,easy,CEP,control,explanation,prediction,4,explanation,hidden,0.0,b,,b,2.0,,,2,1,0.0,364.2999999999884,0.9995627627865908,0.00023798208731954756,2.395120711818859,0.0,0.9998125468632841,7.140816909454443e-05,2.3970110194782137,0.0
35,21.0,easy,CEP,control,explanation,prediction,5,explanation,visible,0.0,a,2.0,a,0.0,,,2,1,0.0,541.3800000000047,0.6424237716605573,6.246095897315027e-05,2.0041256003858328,0.0,,,,
35,21.0,easy,CEP,control,explanation,prediction,5,explanation,hidden,3.0,b,,a,0.0,,,2,2,1.0,386.71999999997206,0.5990807574052525,0.0003328168499553166,1.9412734399363627,0.0,0.9985029940119762,0.00016655562958027982,2.39486926058346,0.0
36,21.0,easy,PEC,prediction,explanation,control,1,explanation,visible,0.0,b,2.0,a,0.0,,,2,2,1.0,4624.988999997033,0.5711463999433557,5.8774434228199665e-05,1.9032295372309576,0.0,,,,
36,21.0,easy,PEC,prediction,explanation,control,1,explanation,hidden,2.0,a,,a,2.0,,,1,2,0.0,6104.014000000025,0.00013021504014559064,0.571208314035749,1.902608052572537,0.0,7.140816909454443e-05,0.999400479616307,2.3966362788352313,0.0
36,21.0,easy,PEC,prediction,explanation,control,2,explanation,visible,0.0,b,2.0,b,2.0,,,2,2,1.0,4456.34799999703,0.9994904444570546,7.136535844161004e-05,2.396718534106582,0.0,,,,
36,21.0,easy,PEC,prediction,explanation,control,2,explanation,hidden,3.0,b,,a,0.0,,,2,2,1.0,4243.910999988089,0.6659112552800437,0.0006650342794239793,2.029267795495151,0.0,0.9990013315579229,0.00033288948069241014,2.3936636137210456,0.0
36,21.0,easy,PEC,prediction,explanation,control,3,explanation,visible,3.0,a,1.0,a,0.0,,,1,2,0.0,4987.997999996995,0.0003325570344733432,0.6653914855166416,2.031897209849817,0.0,,,,
36,21.0,easy,PEC,prediction,explanation,control,3,explanation,hidden,0.0,a,,a,3.0,,,2,2,1.0,2472.7599999970407,0.42826363801187095,0.00016981854841277195,1.6627285423211187,0.0,0.4285204227363611,5.880969183721478e-05,1.6643233373497732,0.0
36,21.0,easy,PEC,prediction,explanation,control,4,explanation,visible,2.0,a,0.0,b,2.0,,,1,2,0.0,3130.8469999970403,5.8774434228199665e-05,0.5711463999433557,1.9032295372309576,0.0,,,,
36,21.0,easy,PEC,prediction,explanation,control,4,explanation,hidden,3.0,a,,b,0.0,,,1,2,0.0,5213.106999988086,0.0006650342794239793,0.6659112552800437,2.029267795495151,0.0,0.00033288948069241014,0.9990013315579229,2.3936636137210456,0.0
36,21.0,easy,PEC,prediction,explanation,control,5,explanation,visible,2.0,a,0.0,a,2.0,,,1,2,0.0,6396.695999991032,5.879009731527879e-05,0.570994232891322,1.9030026279227399,0.0,,,,
36,21.0,easy,PEC,prediction,explanation,control,5,explanation,hidden,0.0,b,,b,2.0,,,2,2,1.0,1896.4949999940584,0.9996015320149281,0.0002712387117308333,2.394824248315922,0.0,0.9998235709244884,7.140816909454443e-05,2.397021043009938,0.0
37,21.0,easy,CEP,control,explanation,prediction,1,explanation,visible,0.0,b,2.0,a,0.0,,,2,2,1.0,7274.0,0.5381038013005172,8.327434083691243e-05,1.8524983852160646,0.0,,,,
37,21.0,easy,CEP,control,explanation,prediction,1,explanation,hidden,0.0,a,,a,3.0,,,2,2,1.0,3412.0,0.4613005099714217,0.00024986799612115775,1.7225906810629599,0.0,0.46147339280221467,8.330556481172943e-05,1.72456149229121,0.0
37,21.0,easy,CEP,control,explanation,prediction,2,explanation,visible,3.0,a,0.0,a,2.0,,,1,2,0.0,900.0,0.00011100625645393816,0.3331528980679547,1.4648111461048081,0.0,,,,
37,21.0,easy,CEP,control,explanation,prediction,2,explanation,hidden,3.0,a,,a,2.0,,,1,1,1.0,475.0,0.00027755190402705624,0.33365196004848163,1.464300416618397,0.0,0.00016655562958027982,0.0004990019960079841,0.003313440278630421,0.0
37,21.0,easy,CEP,control,explanation,prediction,3,explanation,visible,2.0,a,0.0,a,2.0,,,1,2,0.0,2465.0,8.326393977934516e-05,0.5381710194579732,1.8526038240670721,0.0,,,,
37,21.0,easy,CEP,control,explanation,prediction,3,explanation,hidden,0.0,b,,b,2.0,,,2,2,1.0,694.0,0.9994171361039053,0.00020180809622096828,2.3953492087228216,0.0,0.9997500833055648,7.689941556444171e-05,2.396899351359149,0.0
37,21.0,easy,CEP,control,explanation,prediction,4,explanation,visible,3.0,a,1.0,b,0.0,,,1,1,1.0,608.0000000002328,0.00011089549022789608,0.6657235722124,2.034542706371225,0.0,,,,
37,21.0,easy,CEP,control,explanation,prediction,4,explanation,hidden,2.0,b,,b,2.0,,,2,2,1.0,3541.0,0.5382991900707885,0.00016018574345304874,1.8520363615588866,0.0,0.9996251874062968,7.689941556444171e-05,2.3967857773810604,0.0
37,21.0,easy,CEP,control,explanation,prediction,5,explanation,visible,0.0,a,2.0,b,2.0,,,2,1,0.0,3622.0,0.999375364383786,7.686099147272065e-05,2.396558946264591,0.0,,,,
37,21.0,easy,CEP,control,explanation,prediction,5,explanation,hidden,0.0,b,,a,0.0,,,2,2,1.0,7255.0,0.5383257276332916,0.00020805432500652064,1.8516001300355014,0.0,0.5383728083666564,8.330556481172943e-05,1.8529195569799075,0.0
38,21.0,easy,CPE,control,prediction,explanation,1,explanation,visible,0.0,b,2.0,b,2.0,,,2,2,1.0,4023.3400000000256,0.99907222046144,5.879365866059613e-05,2.396463717142395,0.0,,,,
38,21.0,easy,CPE,control,prediction,explanation,1,explanation,hidden,2.0,b,,b,2.0,,,2,1,0.0,1486.439999999944,0.529338891270919,0.00023720044591588155,1.8371305077815672,0.0,0.9997273718647764,5.880969183721478e-05,2.397059474263587,0.0
38,21.0,easy,CPE,control,prediction,explanation,2,explanation,visible,3.0,a,1.0,a,0.0,,,1,1,1.0,4362.719999999972,4.1638907395069954e-05,0.624344452399175,1.9796805538325095,0.0,,,,
38,21.0,easy,CPE,control,prediction,explanation,2,explanation,hidden,0.0,a,,a,0.0,,,2,1,0.0,4530.800000000047,0.5292585285911999,0.00030917793095107567,1.8362849919284348,0.0,0.5293460362267702,0.00014277555682467162,1.8380843192335239,0.0
38,21.0,easy,CPE,control,prediction,explanation,3,explanation,visible,2.0,a,0.0,b,2.0,,,1,1,1.0,5649.339999999967,0.000142736632190859,0.5290815395397815,1.837664347316271,0.0,,,,
38,21.0,easy,CPE,control,prediction,explanation,3,explanation,hidden,0.0,b,,a,0.0,,,2,1,0.0,2338.9599999999627,0.5291856541445225,0.00023356798269298586,1.836923228417627,0.0,0.5293460362267702,0.00014277555682467162,1.8380843192335239,0.0
38,21.0,easy,CPE,control,prediction,explanation,4,explanation,visible,2.0,a,0.0,a,2.0,,,1,1,1.0,3105.939999999944,0.0001427042166064048,0.5292017216040258,1.8378556964625479,0.0,,,,
38,21.0,easy,CPE,control,prediction,explanation,4,explanation,hidden,2.0,a,,a,2.0,,,1,2,0.0,2924.5,0.00023720044591588155,0.529338891270919,1.8371305077815672,0.0,5.880969183721478e-05,0.9997273718647764,2.397059474263587,0.0
38,21.0,easy,CPE,control,prediction,explanation,5,explanation,visible,0.0,b,2.0,a,0.0,,,2,1,0.0,1472.6600000000326,0.5290815395397815,0.000142736632190859,1.837664347316271,0.0,,,,
38,21.0,easy,CPE,control,prediction,explanation,5,explanation,hidden,3.0,a,,b,2.0,,,1,1,1.0,880.5600000000559,0.0004995085157487195,0.5309533587473904,1.837079106305977,0.0,0.00016655562958027982,0.25,1.2510987977002461,0.0
39,21.0,easy,EPC,explanation,prediction,control,1,explanation,visible,3.0,a,1.0,b,0.0,,,1,1,1.0,9948.640000000014,0.0001663892957291677,0.569538095476461,1.8997553686871145,0.0,,,,
39,21.0,easy,EPC,explanation,prediction,control,1,explanation,hidden,0.0,a,,a,0.0,,,2,1,0.0,2717.176999952295,0.5881133898925432,0.00023587911410033512,1.9264274356956095,0.0,0.588155728063985,0.00012493753123438283,1.927596379769943,0.0
39,21.0,easy,EPC,explanation,prediction,control,2,explanation,visible,0.0,a,2.0,a,0.0,,,2,2,1.0,7841.109999999986,0.5879352798900479,0.00012489590389167923,1.9272763978547578,0.0,,,,
39,21.0,easy,EPC,explanation,prediction,control,2,explanation,hidden,0.0,b,,b,2.0,,,2,2,1.0,1942.7669999999923,0.999403202629564,0.00018382583091349774,2.3955160117245056,0.0,0.9996251874062968,5.880969183721478e-05,2.3969665519550447,0.0
39,21.0,easy,EPC,explanation,prediction,control,3,explanation,visible,0.0,b,2.0,a,0.0,,,2,2,1.0,3527.2209999999905,0.5879597632501031,0.00012489070307425,1.9273120387918266,0.0,,,,
39,21.0,easy,EPC,explanation,prediction,control,3,explanation,hidden,2.0,b,,b,2.0,,,2,2,1.0,1320.6739998569246,0.5880626625082306,0.00018382583091349774,1.9268731562447814,0.0,0.9996251874062968,5.880969183721478e-05,2.3969665519550447,0.0
39,21.0,easy,EPC,explanation,prediction,control,4,explanation,visible,0.0,b,2.0,b,2.0,,,2,2,1.0,3336.0350000000035,0.9992921270373254,5.878764922408239e-05,2.39666384101423,0.0,,,,
39,21.0,easy,EPC,explanation,prediction,control,4,explanation,hidden,3.0,a,,a,2.0,,,1,2,0.0,1721.353999904648,0.00030938003945402186,0.4286417575616195,1.6620517851420809,0.0,0.00014277555682467162,0.0003328894806924102,0.0018966290080344199,0.0
39,21.0,easy,EPC,explanation,prediction,control,5,explanation,visible,3.0,a,0.0,a,2.0,,,1,2,0.0,6199.995999856939,0.00016650013570103272,0.42830885028645016,1.6628472536506917,0.0,,,,
39,21.0,easy,EPC,explanation,prediction,control,5,explanation,hidden,3.0,b,,a,0.0,,,2,2,1.0,1811.3769999046344,0.5697308312684147,0.00033290332107455877,1.8983821970535038,0.0,0.9970119521912354,0.00016655562958027982,2.3935109987756307,0.0
40,21.0,easy,CEP,control,explanation,prediction,1,explanation,visible,0.0,b,2.0,a,3.0,,,2,2,1.0,9712.94199999998,0.43728917377102505,9.991720045277149e-05,1.680367589060477,0.0,,,,
40,21.0,easy,CEP,control,explanation,prediction,1,explanation,hidden,0.0,b,,b,2.0,,,2,2,1.0,7979.345000023837,0.9994503817277562,0.00020534224951673295,2.395344177850587,0.0,0.9997001199520191,6.248437890527369e-05,2.396997968750376,0.0
40,21.0,easy,CEP,control,explanation,prediction,2,explanation,visible,2.0,a,0.0,b,2.0,,,1,1,1.0,9204.603999999992,9.991720045277149e-05,0.5622110917173256,1.8894155156199868,0.0,,,,
40,21.0,easy,CEP,control,explanation,prediction,2,explanation,hidden,3.0,b,,a,0.0,,,2,2,1.0,3103.810999999987,0.5697331024541582,0.00024967152885945675,1.899215488813524,0.0,0.9970119521912354,0.00012493753123438283,2.3939265740782867,0.0
40,21.0,easy,CEP,control,explanation,prediction,3,explanation,visible,3.0,a,1.0,a,0.0,,,1,2,0.0,5796.190000000002,0.00012456421191794548,0.5703898456656077,1.9014443494342004,0.0,,,,
40,21.0,easy,CEP,control,explanation,prediction,3,explanation,hidden,2.0,b,,b,2.0,,,2,1,0.0,10073.407000000008,0.5622981453647329,0.00016250202442333255,1.8889219378766025,0.0,0.999571673329526,6.248437890527369e-05,2.396881160429521,0.0
40,21.0,easy,CEP,control,explanation,prediction,4,explanation,visible,0.0,b,2.0,b,2.0,,,2,2,1.0,7277.380000095349,0.9993254197571345,6.245761517930056e-05,2.3966574487292265,0.0,,,,
40,21.0,easy,CEP,control,explanation,prediction,4,explanation,hidden,3.0,a,,b,0.0,,,1,1,1.0,6804.863000023819,0.00024967152885945675,0.5697331024541582,1.899215488813524,0.0,0.00012493753123438283,0.9970119521912354,2.3939265740782867,0.0
40,21.0,easy,CEP,control,explanation,prediction,5,explanation,visible,0.0,a,2.0,a,0.0,,,2,2,1.0,5819.048999999999,0.5621809942288843,9.992254972074139e-05,1.8893700111563945,0.0,,,,
40,21.0,easy,CEP,control,explanation,prediction,5,explanation,hidden,3.0,a,,b,2.0,,,1,2,0.0,7453.65399999998,0.00037473712927084586,0.4288778487189019,1.6618469420233626,0.0,0.00012493753123438283,0.0009960159362549805,0.008662288406988131,0.0
41,21.0,easy,PCE,prediction,control,explanation,1,explanation,visible,0.0,b,2.0,a,3.0,,,2,1,0.0,8681.050999999803,0.3570230053278442,5.5487743365803326e-05,1.5190088199788794,0.0,,,,
41,21.0,easy,PCE,prediction,control,explanation,1,explanation,hidden,3.0,a,,a,2.0,,,1,2,0.0,1308.7619999999297,0.0005325814263569558,0.400277952544354,1.6046819807959833,0.0,0.00019984012789768185,0.0009960159362549805,0.007914476768016928,0.0
41,21.0,easy,PCE,prediction,control,explanation,2,explanation,visible,2.0,a,0.0,b,2.0,,,1,1,1.0,725.3580000000075,5.5487743365803326e-05,0.6425842973317187,2.0044114864583134,0.0,,,,
41,21.0,easy,PCE,prediction,control,explanation,2,explanation,hidden,0.0,a,,a,3.0,,,2,1,0.0,3303.5599999999977,0.35675582197545447,0.00013886240683276446,1.5175910948925924,0.0,0.35711225364181665,5.5543212619417915e-05,1.5192035284140952,0.0
41,21.0,easy,PCE,prediction,control,explanation,3,explanation,visible,0.0,b,2.0,a,0.0,,,2,2,1.0,766.8520000000135,0.6425842973317187,5.5487743365803326e-05,2.0044114864583134,0.0,,,,
41,21.0,easy,PCE,prediction,control,explanation,3,explanation,hidden,0.0,b,,a,0.0,,,2,2,1.0,722.7249999998021,0.6427008388789569,0.0003876041651875811,2.0012545890285818,0.0,0.6427449300199943,5.5543212619417915e-05,2.0046272244428662,0.0
41,21.0,easy,PCE,prediction,control,explanation,4,explanation,visible,3.0,a,1.0,b,0.0,,,1,2,0.0,583.6540000000969,0.0003318947910090664,0.5991213021593378,1.9413406255398529,0.0,,,,
41,21.0,easy,PCE,prediction,control,explanation,4,explanation,hidden,0.0,a,,a,0.0,,,2,2,1.0,525.3010000002105,0.6425687415855691,0.00013864143833707552,2.003559807465085,0.0,0.6427449300199943,5.5543212619417915e-05,2.0046272244428662,0.0
41,21.0,easy,PCE,prediction,control,explanation,5,explanation,visible,2.0,a,0.0,a,2.0,,,1,2,0.0,2663.7790000002133,5.552933144332176e-05,0.6421030409420784,2.003762777535879,0.0,,,,
41,21.0,easy,PCE,prediction,control,explanation,5,explanation,hidden,3.0,a,,b,0.0,,,1,1,1.0,447.1489999999758,0.00066458113063997,0.5993629727151195,1.9383758704812821,0.0,0.00033288948069241014,0.9990013315579229,2.3936636137210456,0.0
42,21.0,easy,ECP,explanation,control,prediction,1,explanation,visible,0.0,a,2.0,b,2.0,,,2,2,1.0,4420.640000000014,0.9992006528075327,6.246876301584384e-05,2.3965438367790717,0.0,,,,
42,21.0,easy,ECP,explanation,control,prediction,1,explanation,hidden,0.0,a,,a,0.0,,,2,2,1.0,2044.7600000000093,0.6248169119733805,0.00017053191975617714,1.9790450349733129,0.0,0.6249062734316422,6.664889362836577e-05,1.9802059155529683,0.0
42,21.0,easy,ECP,explanation,control,prediction,2,explanation,visible,2.0,a,0.0,a,2.0,,,1,2,0.0,7093.880000000005,6.66322369571824e-05,0.6245316293828223,1.9796891311874234,0.0,,,,
42,21.0,easy,ECP,explanation,control,prediction,2,explanation,hidden,2.0,a,,a,2.0,,,1,2,0.0,2975.720000000001,0.00012913582486677504,0.7183363529562574,2.1008127303697894,0.0,6.248437890527369e-05,0.999400479616307,2.3967254570357004,0.0
42,21.0,easy,ECP,explanation,control,prediction,3,explanation,visible,0.0,b,2.0,a,0.0,,,2,2,1.0,664.4800000000105,0.6247500989214543,6.660893625808497e-05,1.9799908506805937,0.0,,,,
42,21.0,easy,ECP,explanation,control,prediction,3,explanation,hidden,0.0,b,,a,0.0,,,2,2,1.0,423.9200000000128,0.6248690221206508,0.0003158519003506376,1.9776672520409009,0.0,0.6249062734316422,6.664889362836577e-05,1.9802059155529683,0.0
42,21.0,easy,ECP,explanation,control,prediction,4,explanation,visible,3.0,a,0.0,a,2.0,,,1,2,0.0,714.3999999999942,0.2499375208263912,0.4282125698641544,0.4117441705028384,0.0,,,,
42,21.0,easy,ECP,explanation,control,prediction,4,explanation,hidden,2.0,b,,b,2.0,,,2,2,1.0,306.27999999999884,0.7183363529562574,0.00012913582486677504,2.1008127303697894,0.0,0.999400479616307,6.248437890527369e-05,2.3967254570357004,0.0
42,21.0,easy,ECP,explanation,control,prediction,5,explanation,visible,3.0,a,1.0,b,0.0,,,1,1,1.0,3278.399999999994,0.24925298804780885,0.5706745184984651,0.6524873962722871,0.0,,,,
42,21.0,easy,ECP,explanation,control,prediction,5,explanation,hidden,0.0,a,,a,3.0,,,2,2,1.0,768.2200000000012,0.3747440681017486,8.755824962497253e-05,1.556730469445694,0.0,0.3749687578105474,6.664889362836577e-05,1.557412575921813,0.0
43,21.0,easy,ECP,explanation,control,prediction,1,explanation,visible,3.0,a,1.0,a,0.0,,,1,2,0.0,6381.3740000178805,9.981037525109719e-05,0.6653914855166416,2.034219656736466,0.0,,,,
43,21.0,easy,ECP,explanation,control,prediction,1,explanation,hidden,3.0,b,,a,0.0,,,2,2,1.0,6586.347000005946,0.6655791685842853,0.0001997694752236073,2.0334667424987436,0.0,0.9985029940119762,9.996001599360256e-05,2.395534330486201,0.0
43,21.0,easy,ECP,explanation,control,prediction,2,explanation,visible,3.0,a,1.0,b,0.0,,,1,2,0.0,3785.34800001193,9.981037525109719e-05,0.6653914855166416,2.034219656736466,0.0,,,,
43,21.0,easy,ECP,explanation,control,prediction,2,explanation,hidden,0.0,b,,a,0.0,,,2,2,1.0,5505.679000000004,0.5712943221857538,0.0002904224411617774,1.9011374716827476,0.0,0.5713367609254499,9.087604507451837e-05,1.9031923564799456,0.0
43,21.0,easy,ECP,explanation,control,prediction,3,explanation,visible,2.0,a,0.0,b,2.0,,,1,2,0.0,2808.8280000238447,9.082156303310678e-05,0.5711463999433557,1.9029093054671202,0.0,,,,
43,21.0,easy,ECP,explanation,control,prediction,3,explanation,hidden,2.0,b,,b,2.0,,,2,2,1.0,1843.8720000059693,0.5711084921336699,0.00016229495097997747,1.9021389911966629,0.0,0.999400479616307,7.140816909454443e-05,2.3966362788352313,0.0
43,21.0,easy,ECP,explanation,control,prediction,4,explanation,visible,0.0,b,2.0,a,3.0,,,2,2,1.0,3577.759000023827,0.4283776460517532,9.082156303310678e-05,1.663733277339165,0.0,,,,
43,21.0,easy,ECP,explanation,control,prediction,4,explanation,hidden,0.0,b,,b,2.0,,,2,2,1.0,1612.822000011918,0.99950533913777,0.00027127190767713935,2.3947364336687746,0.0,0.9997273718647764,7.140816909454443e-05,2.3969335714648135,0.0
43,21.0,easy,ECP,explanation,control,prediction,5,explanation,visible,0.0,a,2.0,a,0.0,,,2,2,1.0,2908.3630000059493,0.570994232891322,9.084576651663036e-05,1.9026823108825706,0.0,,,,
43,21.0,easy,ECP,explanation,control,prediction,5,explanation,hidden,0.0,a,,a,3.0,,,2,2,1.0,2453.286000000022,0.4282636712078173,0.0002019518262762844,1.6624078685812522,0.0,0.4285204227363611,9.087604507451837e-05,1.6640029136289605,0.0
44,21.0,easy,PEC,prediction,explanation,control,1,explanation,visible,2.0,a,0.0,a,2.0,,,1,2,0.0,3098.06400002382,9.08419835883585e-05,0.6917566684886481,2.068175914390397,0.0,,,,
44,21.0,easy,PEC,prediction,explanation,control,1,explanation,hidden,2.0,b,,b,2.0,,,2,1,0.0,4555.054999928456,0.6918555557893562,0.00016782910887812368,2.0675319258073723,0.0,0.999400479616307,7.689941556444173e-05,2.3965814070600207,0.0
44,21.0,easy,PEC,prediction,explanation,control,2,explanation,visible,2.0,a,0.0,b,2.0,,,1,1,1.0,718.3010000238428,9.082156303310678e-05,0.6919122048480528,2.068372543765105,0.0,,,,
44,21.0,easy,PEC,prediction,explanation,control,2,explanation,hidden,3.0,a,,a,2.0,,,1,2,0.0,2004.490000023856,0.00027125533657908885,0.4001394211595291,1.6070078348515202,0.0,0.00019984012789768185,0.0004990019960079841,0.00298120394231516,0.0
44,21.0,easy,PEC,prediction,explanation,control,3,explanation,visible,0.0,b,2.0,b,2.0,,,2,2,1.0,2319.4560000238707,0.9993526614555317,7.685331279731677e-05,2.3965383720269173,0.0,,,,
44,21.0,easy,PEC,prediction,explanation,control,3,explanation,hidden,3.0,b,,a,0.0,,,2,2,1.0,1188.7329999284702,0.5981964269107346,0.0001427149018621583,1.9419041594876982,0.0,0.9970119521912354,7.140816909454442e-05,2.3944613427148296,0.0
44,21.0,easy,PEC,prediction,explanation,control,4,explanation,visible,3.0,a,0.0,a,2.0,,,1,2,0.0,493.3609999284963,7.13814044134745e-05,0.3996403596547222,1.6080048135370166,0.0,,,,
44,21.0,easy,PEC,prediction,explanation,control,4,explanation,hidden,3.0,a,,b,2.0,,,1,2,0.0,595.7729999284493,0.00021418256419378806,0.4003276020312239,1.6079533667407837,0.0,7.140816909454442e-05,0.0009960159362549805,0.009197057043531132,0.0
44,21.0,easy,PEC,prediction,explanation,control,5,explanation,visible,0.0,a,2.0,a,0.0,,,2,2,1.0,1484.7640000238316,0.6917566684886481,9.08419835883585e-05,2.068175914390397,0.0,,,,
44,21.0,easy,PEC,prediction,explanation,control,5,explanation,hidden,0.0,a,,a,3.0,,,2,2,1.0,1222.184000023815,0.30749036844962535,0.0002158400617513548,1.402691036089798,0.0,0.3076745616733313,9.087604507451837e-05,1.4043906793941794,0.0
45,21.0,easy,CPE,control,prediction,explanation,1,explanation,visible,3.0,a,1.0,b,0.0,,,1,1,1.0,6973.099999999977,0.0004975109541872432,0.7135924898002785,2.091326653298699,0.0,,,,
45,21.0,easy,CPE,control,prediction,explanation,1,explanation,hidden,0.0,a,,a,3.0,,,2,2,1.0,5481.719999999972,0.4371909597596065,0.0001741338109809583,1.679443626336506,0.0,0.4374531367158211,9.087604507451837e-05,1.6807630349292642,0.0
45,21.0,easy,CPE,control,prediction,explanation,2,explanation,visible,2.0,a,0.0,a,2.0,,,1,2,0.0,3629.0999999999767,9.085333363373e-05,0.5620847111363647,1.8893152033343272,0.0,,,,
45,21.0,easy,CPE,control,prediction,explanation,2,explanation,hidden,3.0,a,,b,0.0,,,1,1,1.0,1294.719999999972,0.0009959110091697521,0.7137373798943563,2.0865576538601633,0.0,0.000499001996007984,0.9994004796163067,2.3923724946174016,0.0
45,21.0,easy,CPE,control,prediction,explanation,3,explanation,visible,3.0,a,1.0,a,0.0,,,1,1,1.0,1633.3400000000256,0.0004987028341398736,0.7118870321114175,2.0892163871748313,0.0,,,,
45,21.0,easy,CPE,control,prediction,explanation,3,explanation,hidden,3.0,a,,b,2.0,,,1,2,0.0,2490.320000000007,0.0014963207891363843,0.2857652087998268,1.3352063675952672,0.0,0.000499001996007984,0.00019984012789768185,0.0029812039423151916,0.0
45,21.0,easy,CPE,control,prediction,explanation,4,explanation,visible,0.0,b,2.0,a,3.0,,,2,2,1.0,1835.5,0.43734380987392274,9.082156303310678e-05,1.6805601420522172,0.0,,,,
45,21.0,easy,CPE,control,prediction,explanation,4,explanation,hidden,0.0,b,,b,2.0,,,2,1,0.0,5305.440000000002,0.9995609034694045,0.0002623055711222144,2.394876392936492,0.0,0.9997273718647764,6.248437890527369e-05,2.3970227496652825,0.0
45,21.0,easy,CPE,control,prediction,explanation,5,explanation,visible,0.0,a,2.0,b,2.0,,,2,2,1.0,4369.5,0.9991280149272076,6.246876301584384e-05,2.3964777521381193,0.0,,,,
45,21.0,easy,CPE,control,prediction,explanation,5,explanation,hidden,2.0,b,,b,2.0,,,2,1,0.0,1278.3400000000256,0.5623655307040886,0.0001533518130977102,1.8891150352556645,0.0,0.999400479616307,6.248437890527369e-05,2.3967254570357004,0.0
46,21.0,easy,PCE,prediction,control,explanation,1,explanation,visible,3.0,a,0.0,a,2.0,,,1,1,1.0,2925.985999999976,0.0004988357359026948,0.4995836941483825,1.7860894285949613,0.0,,,,
46,21.0,easy,PCE,prediction,control,explanation,1,explanation,hidden,0.0,b,,a,0.0,,,2,2,1.0,6624.367000002996,0.5713126545477883,0.00022201560761369723,1.9018471004161452,0.0,0.5713367609254499,5.5543212619417915e-05,1.9035454263270424,0.0
46,21.0,easy,PCE,prediction,control,explanation,2,explanation,visible,2.0,a,0.0,b,2.0,,,1,2,0.0,2476.971000002988,5.55154595151777e-05,0.5711463999433557,1.9032621083653334,0.0,,,,
46,21.0,easy,PCE,prediction,control,explanation,2,explanation,hidden,0.0,a,,a,0.0,,,2,1,0.0,1043.484000000055,0.5713006093890636,0.0001665494609030311,1.9023827435198453,0.0,0.5713367609254499,5.5543212619417915e-05,1.9035454263270424,0.0
46,21.0,easy,PCE,prediction,control,explanation,3,explanation,visible,0.0,b,2.0,a,3.0,,,2,2,1.0,1218.314000000013,0.4283776460517532,5.55154595151777e-05,1.664086080237378,0.0,,,,
46,21.0,easy,PCE,prediction,control,explanation,3,explanation,hidden,3.0,a,,b,0.0,,,1,1,1.0,2539.003999999957,0.0009968694732595301,0.4985738399473589,1.7794603713577963,0.0,0.000499001996007984,0.00011106175033318526,0.0038676098497815265,0.0
46,21.0,easy,PCE,prediction,control,explanation,4,explanation,visible,3.0,a,1.0,a,0.0,,,1,1,1.0,3600.526999996975,0.0004975109541872432,0.49933427648323225,1.7856865394598025,0.0,,,,
46,21.0,easy,PCE,prediction,control,explanation,4,explanation,hidden,0.0,b,,b,2.0,,,2,1,0.0,1896.0320000000063,0.9996113392774574,0.00023806625733697483,2.395164049148044,0.0,0.9998333703621417,7.140816909454443e-05,2.3970299529790062,0.0
46,21.0,easy,PCE,prediction,control,explanation,5,explanation,visible,0.0,b,2.0,b,2.0,,,2,1,0.0,761.2770000030287,0.9995002406296799,7.137248879686229e-05,2.3967273725529465,0.0,,,,
46,21.0,easy,PCE,prediction,control,explanation,5,explanation,hidden,2.0,b,,b,2.0,,,2,1,0.0,652.1809999970719,0.5713365354513763,0.00012698554977703453,1.902831318486286,0.0,0.9995003331112592,7.140816909454443e-05,2.3967271001168853,0.0
47,21.0,easy,PCE,prediction,control,explanation,1,explanation,visible,0.0,b,2.0,a,3.0,,,2,1,0.0,3944.43500001193,0.39982674988728023,0.00011101417962344804,1.607981826119084,0.0,,,,
47,21.0,easy,PCE,prediction,control,explanation,1,explanation,hidden,3.0,a,,b,2.0,,,1,2,0.0,2582.966000000015,0.000428204319087485,0.2859550278011474,1.346277767070076,0.0,0.00014277555682467162,0.0004990019960079841,0.0035508737793712285,0.0
47,21.0,easy,PCE,prediction,control,explanation,2,explanation,visible,2.0,a,0.0,a,2.0,,,1,2,0.0,4128.770000023826,0.00011102474619602405,0.599649735513134,1.9443000143931166,0.0,,,,
47,21.0,easy,PCE,prediction,control,explanation,2,explanation,hidden,3.0,b,,a,0.0,,,2,1,0.0,2522.082999999984,0.7131098384062057,0.000285383615390435,2.092846245330306,0.0,0.9985029940119762,0.00014277555682467162,2.395106694084201,0.0
47,21.0,easy,PCE,prediction,control,explanation,3,explanation,visible,3.0,a,0.0,a,2.0,,,1,2,0.0,2654.7340000119293,0.00014272798611493438,0.2855715188938295,1.3481302499651258,0.0,,,,
47,21.0,easy,PCE,prediction,control,explanation,3,explanation,hidden,0.0,a,,a,0.0,,,2,1,0.0,2521.2190000237897,0.5998331032951113,0.0002220072964705212,1.9434540845196642,0.0,0.5999066915489203,0.00011106175033318526,1.9446668411591461,0.0
47,21.0,easy,PCE,prediction,control,explanation,4,explanation,visible,0.0,a,2.0,b,2.0,,,2,2,1.0,6692.123000035761,0.9992386307906557,6.662668720001337e-05,2.3965368343078786,0.0,,,,
47,21.0,easy,PCE,prediction,control,explanation,4,explanation,hidden,2.0,a,,a,2.0,,,1,1,1.0,3096.5740000000224,0.0001777227103343796,0.5997734889002798,1.943810859700426,0.0,6.664889362836578e-05,0.999571673329526,2.3968395421538045,0.0
47,21.0,easy,PCE,prediction,control,explanation,5,explanation,visible,3.0,a,1.0,a,0.0,,,1,2,0.0,7161.319999988074,0.00014256182096116166,0.713307489880236,2.0945144654080607,0.0,,,,
47,21.0,easy,PCE,prediction,control,explanation,5,explanation,hidden,0.0,a,,a,3.0,,,2,2,1.0,6325.459000011906,0.3997888046111834,0.00022209175401111103,1.6067969774761348,0.0,0.39996001066382303,0.00011106175033318526,1.608247929339311,0.0
48,21.0,easy,CEP,control,explanation,prediction,1,explanation,visible,0.0,a,2.0,b,2.0,,,2,1,0.0,7584.758000005968,0.9991507127520243,6.663072326478116e-05,2.3964568099267507,0.0,,,,
48,21.0,easy,CEP,control,explanation,prediction,1,explanation,hidden,3.0,a,,a,2.0,,,1,2,0.0,1937.016999994056,0.00034258864557046276,0.42864039066790394,1.6617181924345406,0.0,0.00014277555682467162,0.0004990019960079841,0.0035508737793712285,0.0
48,21.0,easy,CEP,control,explanation,prediction,2,explanation,visible,2.0,a,0.0,a,2.0,,,1,1,1.0,4252.391999999993,8.328285337094106e-05,0.5995470352590229,1.9444303651890402,0.0,,,,
48,21.0,easy,CEP,control,explanation,prediction,2,explanation,hidden,3.0,a,,b,2.0,,,1,1,1.0,1332.9469999940484,0.0005993305444712603,0.4286377155020949,1.659157746404805,0.0,0.00019984012789768188,0.0004990019960079841,0.00298120394231516,0.0
48,21.0,easy,CEP,control,explanation,prediction,3,explanation,visible,0.0,a,2.0,a,0.0,,,2,1,0.0,906.8519999880808,0.5995470352590229,8.328285337094106e-05,1.9444303651890402,0.0,,,,
48,21.0,easy,CEP,control,explanation,prediction,3,explanation,hidden,2.0,b,,b,2.0,,,2,1,0.0,1210.8549999940442,0.599693628813596,0.00014996855396964568,1.9439738179906747,0.0,0.999400479616307,6.664889362836578e-05,2.3966838387599845,0.0
