participant_id,fsm_number,fsm_type,test_order,test1,test2,test3,trial_number,test_condition,trial_type,state_1,response_1,state_2,response_2,state_3,option_1,option_2,correctResponse,response,response_correct,response_time,timestamp,trial_order,option_1_p_mm,option_2_p_mm,option_1_p_mm_an,option_2_p_mm_an,R_i_mm_eps_0.1,R_i_mm_an_eps_0.1,correct_mm,correct_mm_an,response_correct_mm,response_correct_mm_an
1,21.0,easy,CEP,control,explanation,prediction,1,control,visible,0.0,a,2.0,,0.0,a,b,a,a,1.0,4168.052000000025,2023-07-26 18:49:50.927000+00:00,1,0.538,0.0,,,1.8531680973566984,,a,,1.0,
1,21.0,easy,CEP,control,explanation,prediction,2,control,visible,2.0,a,3.0,,1.0,a,b,a,a,1.0,1254.2599999761442,2023-07-26 18:49:55.714000+00:00,2,0.6,0.0,,,1.9459101490553128,,a,,1.0,
1,21.0,easy,CEP,control,explanation,prediction,3,control,visible,3.0,b,3.0,,3.0,a,b,b,b,1.0,1183.8789999761502,2023-07-26 18:50:00.410000+00:00,3,0.0,1.0,,,2.3978952727983707,,b,,1.0,
1,21.0,easy,CEP,control,explanation,prediction,4,control,visible,0.0,a,2.0,,3.0,a,b,a,a,1.0,3927.266999964253,2023-07-26 18:50:07.852000+00:00,4,0.461,0.0,,,1.724550719534605,,a,,1.0,
1,21.0,easy,CEP,control,explanation,prediction,5,control,visible,0.0,b,2.0,,3.0,a,b,a,a,1.0,3914.230999964231,2023-07-26 18:50:15.289000+00:00,5,0.461,0.0,,,1.724550719534605,,a,,1.0,
1,21.0,easy,CEP,control,explanation,prediction,1,control,hidden,0.0,,,,0.0,aa,ab,aa,aa,1.0,8306.210999964213,2023-07-26 18:50:27.514000+00:00,6,0.538,0.0,0.538,0.0,1.8531680973566984,1.8531680973566984,aa,aa,1.0,1.0
1,21.0,easy,CEP,control,explanation,prediction,2,control,hidden,3.0,,,,2.0,aa,bb,aa,aa,1.0,6690.715999964217,2023-07-26 18:50:37.233000+00:00,7,0.4,0.0,0.0,0.0,1.6094379124341005,0.0,aa,,1.0,
1,21.0,easy,CEP,control,explanation,prediction,3,control,hidden,3.0,,,,3.0,bb,ba,bb,bb,1.0,2690.350999952294,2023-07-26 18:50:42.944000+00:00,8,0.999,0.0,1.0,0.0,2.39698576841553,2.3978952727983707,bb,bb,1.0,1.0
1,21.0,easy,CEP,control,explanation,prediction,4,control,hidden,3.0,,,,2.0,ab,ba,ab,ab,1.0,3609.0269999761367,2023-07-26 18:50:49.574000+00:00,9,0.401,0.0,0.001,0.0,1.6114359150967734,0.009950330853168,ab,ab,1.0,1.0
1,21.0,easy,CEP,control,explanation,prediction,5,control,hidden,2.0,,,,1.0,ab,aa,aa,aa,1.0,4261.358999952325,2023-07-26 18:50:56.854000+00:00,10,0.0,0.277,0.0,0.0,1.3270750014599193,0.0,aa,,1.0,
1,21.0,easy,CEP,control,explanation,prediction,1,explanation,visible,0.0,a,2.0,a,0.0,,,2,1,0.0,5658.98699998809,2023-07-26 18:51:51.235000+00:00,11,0.538,0.0,,,1.8531680973566984,,2,,0.0,
1,21.0,easy,CEP,control,explanation,prediction,2,explanation,visible,3.0,a,1.0,a,0.0,,,1,2,0.0,1434.9349999523256,2023-07-26 18:51:55.710000+00:00,12,0.0,0.598,,,1.943048916774281,,1,,0.0,
1,21.0,easy,CEP,control,explanation,prediction,3,explanation,visible,0.0,b,2.0,b,2.0,,,2,2,1.0,5212.908999976178,2023-07-26 18:52:03.940000+00:00,13,0.999,0.0,,,2.39698576841553,,2,,1.0,
1,21.0,easy,CEP,control,explanation,prediction,4,explanation,visible,0.0,b,2.0,a,3.0,,,2,1,0.0,5758.021999999997,2023-07-26 18:52:12.718000+00:00,14,0.461,0.0,,,1.724550719534605,,2,,0.0,
1,21.0,easy,CEP,control,explanation,prediction,5,explanation,visible,0.0,b,2.0,a,0.0,,,2,2,1.0,4730.939999976137,2023-07-26 18:52:20.474000+00:00,15,0.538,0.0,,,1.8531680973566984,,2,,1.0,
1,21.0,easy,CEP,control,explanation,prediction,1,explanation,hidden,3.0,b,,a,0.0,,,2,2,1.0,3844.0739999642246,2023-07-26 18:52:27.339000+00:00,16,0.599,0.0,0.999,0.0,1.9444805562457188,2.39698576841553,2,2,1.0,1.0
1,21.0,easy,CEP,control,explanation,prediction,2,explanation,hidden,0.0,a,,a,0.0,,,2,2,1.0,1484.960000000021,2023-07-26 18:52:31.863000+00:00,17,0.538,0.0,0.538,0.0,1.8531680973566984,1.8531680973566984,2,2,1.0,1.0
1,21.0,easy,CEP,control,explanation,prediction,3,explanation,hidden,3.0,a,,b,2.0,,,1,2,0.0,732.0399999761721,2023-07-26 18:52:35.610000+00:00,18,0.0,0.4,0.0,0.0,1.6094379124341005,0.0,1,,0.0,
1,21.0,easy,CEP,control,explanation,prediction,4,explanation,hidden,3.0,a,,a,2.0,,,1,2,0.0,596.1899999761372,2023-07-26 18:52:39.224000+00:00,19,0.0,0.401,0.0,0.001,1.6114359150967734,0.009950330853168,1,1,0.0,0.0
1,21.0,easy,CEP,control,explanation,prediction,5,explanation,hidden,2.0,b,,b,2.0,,,2,2,1.0,1986.2139999761712,2023-07-26 18:52:44.231000+00:00,20,0.538,0.0,1.0,0.0,1.8531680973566984,2.3978952727983707,2,2,1.0,1.0
1,21.0,easy,CEP,control,explanation,prediction,1,prediction,visible,2.0,b,2.0,a,,1,3,3,3,1.0,2915.092999988061,2023-07-26 18:53:03.327000+00:00,21,0.0,0.461,,,1.724550719534605,,3,,1.0,
1,21.0,easy,CEP,control,explanation,prediction,2,prediction,visible,3.0,a,1.0,a,,0,1,0,0,1.0,1774.50900000002,2023-07-26 18:53:08.619000+00:00,22,0.999,0.0,,,2.39698576841553,,0,,1.0,
1,21.0,easy,CEP,control,explanation,prediction,3,prediction,visible,3.0,b,3.0,b,,1,3,3,3,1.0,1081.1869999523042,2023-07-26 18:53:13.209000+00:00,23,0.0,1.0,,,2.3978952727983707,,3,,1.0,
1,21.0,easy,CEP,control,explanation,prediction,4,prediction,visible,3.0,a,1.0,b,,3,0,0,3,0.0,7155.414999976172,2023-07-26 18:53:23.884000+00:00,24,0.001,0.997,,,2.3852139434339708,,0,,0.0,
1,21.0,easy,CEP,control,explanation,prediction,5,prediction,visible,1.0,a,0.0,a,,2,0,2,0,0.0,5198.712999976182,2023-07-26 18:53:32.594000+00:00,25,1.0,0.0,,,2.3978952727983707,,2,,0.0,
1,21.0,easy,CEP,control,explanation,prediction,1,prediction,hidden,3.0,a,,b,,2,1,2,2,1.0,2103.97499997617,2023-07-26 18:53:38.231000+00:00,26,0.4,0.001,0.001,0.001,1.5994875815809322,0.0,2,,1.0,
1,21.0,easy,CEP,control,explanation,prediction,2,prediction,hidden,3.0,a,,a,,2,1,2,1,0.0,2844.1469999880646,2023-07-26 18:53:44.105000+00:00,27,0.4,0.0,0.0,0.0,1.6094379124341005,0.0,2,,0.0,
1,21.0,easy,CEP,control,explanation,prediction,3,prediction,hidden,3.0,b,,a,,3,1,1,3,0.0,5010.305999988108,2023-07-26 18:53:52.138000+00:00,28,0.0,0.6,0.0,0.6,1.9459101490553128,1.9459101490553128,1,1,0.0,0.0
1,21.0,easy,CEP,control,explanation,prediction,4,prediction,hidden,2.0,a,,a,,3,1,1,3,0.0,4369.893999952357,2023-07-26 18:53:59.530000+00:00,29,0.0,0.277,0.0,0.0,1.3270750014599193,0.0,1,,0.0,
1,21.0,easy,CEP,control,explanation,prediction,5,prediction,hidden,0.0,a,,a,,1,0,0,0,1.0,1352.9590000000317,2023-07-26 18:54:03.899000+00:00,30,0.0,0.539,0.0,0.539,1.8547342683894437,1.8547342683894437,0,0,1.0,1.0
2,21.0,easy,ECP,explanation,control,prediction,1,explanation,visible,2.0,a,0.0,b,2.0,,,1,2,0.0,7330.308999856963,2023-07-26 18:53:38.724000+00:00,1,0.0,0.571,,,1.9035989509835904,,1,,0.0,
2,21.0,easy,ECP,explanation,control,prediction,2,explanation,visible,0.0,a,2.0,b,2.0,,,2,2,1.0,3696.5439999999935,2023-07-26 18:53:45.450000+00:00,2,0.999,0.0,,,2.39698576841553,,2,,1.0,
2,21.0,easy,ECP,explanation,control,prediction,3,explanation,visible,0.0,a,2.0,a,0.0,,,2,2,1.0,10634.045999856957,2023-07-26 18:53:59.107000+00:00,3,0.571,0.0,,,1.9035989509835904,,2,,1.0,
2,21.0,easy,ECP,explanation,control,prediction,4,explanation,visible,0.0,b,2.0,a,0.0,,,2,1,0.0,4221.446999809268,2023-07-26 18:54:06.351000+00:00,4,0.571,0.0,,,1.9035989509835904,,2,,0.0,
2,21.0,easy,ECP,explanation,control,prediction,5,explanation,visible,3.0,a,0.0,a,2.0,,,1,2,0.0,2484.2369998092763,2023-07-26 18:54:11.862000+00:00,5,0.0,0.333,,,1.4655675420143983,,1,,0.0,
2,21.0,easy,ECP,explanation,control,prediction,1,explanation,hidden,3.0,b,,a,0.0,,,2,1,0.0,10313.153999809265,2023-07-26 18:54:25.318000+00:00,6,0.666,0.0,0.999,0.0,2.0360119837525,2.39698576841553,2,2,0.0,0.0
2,21.0,easy,ECP,explanation,control,prediction,2,explanation,hidden,3.0,a,,b,2.0,,,1,2,0.0,6705.176000000007,2023-07-26 18:54:35.049000+00:00,7,0.0,0.334,0.0,0.0,1.4678743481123135,0.0,1,,0.0,
2,21.0,easy,ECP,explanation,control,prediction,3,explanation,hidden,0.0,a,,a,3.0,,,2,2,1.0,9854.909000000014,2023-07-26 18:54:47.927000+00:00,8,0.428,0.0,0.429,0.0,1.6639260977181702,1.665818245870208,2,2,1.0,1.0
2,21.0,easy,ECP,explanation,control,prediction,4,explanation,hidden,2.0,b,,b,2.0,,,2,2,1.0,1054.9349998092512,2023-07-26 18:54:52.010000+00:00,9,0.571,0.0,0.999,0.0,1.9035989509835904,2.39698576841553,2,2,1.0,1.0
2,21.0,easy,ECP,explanation,control,prediction,5,explanation,hidden,3.0,a,,b,0.0,,,1,1,1.0,988.3309999046614,2023-07-26 18:54:56.010000+00:00,10,0.0,0.666,0.0,0.999,2.0360119837525,2.39698576841553,1,1,1.0,1.0
2,21.0,easy,ECP,explanation,control,prediction,1,control,visible,2.0,a,3.0,,3.0,a,b,b,a,0.0,5175.664999809291,2023-07-26 18:55:22.082000+00:00,11,0.0,1.0,,,2.3978952727983707,,b,,0.0,
2,21.0,easy,ECP,explanation,control,prediction,2,control,visible,3.0,b,3.0,,3.0,a,b,b,a,0.0,1746.7799999522977,2023-07-26 18:55:27.357000+00:00,12,0.0,1.0,,,2.3978952727983707,,b,,0.0,
2,21.0,easy,ECP,explanation,control,prediction,3,control,visible,0.0,a,2.0,,2.0,a,b,b,b,1.0,680.167999952333,2023-07-26 18:55:31.543000+00:00,13,0.0,1.0,,,2.3978952727983707,,b,,1.0,
2,21.0,easy,ECP,explanation,control,prediction,4,control,visible,0.0,b,2.0,,3.0,a,b,a,a,1.0,4563.768999856955,2023-07-26 18:55:39.618000+00:00,14,0.429,0.0,,,1.665818245870208,,a,,1.0,
2,21.0,easy,ECP,explanation,control,prediction,5,control,visible,0.0,b,2.0,,2.0,a,b,b,b,1.0,1350.738999952329,2023-07-26 18:55:44.490000+00:00,15,0.0,1.0,,,2.3978952727983707,,b,,1.0,
2,21.0,easy,ECP,explanation,control,prediction,1,control,hidden,2.0,,,,1.0,ab,aa,aa,aa,1.0,2005.1729998092635,2023-07-26 18:55:50.159000+00:00,16,0.0,0.286,0.0,0.0,1.3506671834767394,0.0,aa,,1.0,
2,21.0,easy,ECP,explanation,control,prediction,2,control,hidden,0.0,,,,3.0,ab,aa,aa,ab,0.0,659.0250000000233,2023-07-26 18:55:53.847000+00:00,17,0.0,0.428,0.0,0.429,1.66392609771817,1.665818245870208,aa,aa,0.0,0.0
2,21.0,easy,ECP,explanation,control,prediction,3,control,hidden,0.0,,,,0.0,aa,ab,aa,ab,0.0,892.738999856927,2023-07-26 18:55:57.768000+00:00,18,0.571,0.0,0.571,0.0,1.9035989509835904,1.9035989509835904,aa,aa,0.0,0.0
2,21.0,easy,ECP,explanation,control,prediction,4,control,hidden,3.0,,,,1.0,aa,ba,ba,ba,1.0,2242.5629998569493,2023-07-26 18:56:03.046000+00:00,19,0.0,0.666,0.0,0.666,2.0360119837525,2.0360119837525,ba,ba,1.0,1.0
2,21.0,easy,ECP,explanation,control,prediction,5,control,hidden,3.0,,,,2.0,ab,ba,ab,ab,1.0,3503.219999999972,2023-07-26 18:56:09.564000+00:00,20,0.333,0.0,0.0,0.0,1.4655675420143983,0.0,ab,,1.0,
2,21.0,easy,ECP,explanation,control,prediction,1,prediction,visible,3.0,a,1.0,a,,0,1,0,1,0.0,1263.2539999523433,2023-07-26 18:57:04.333000+00:00,21,0.999,0.0,,,2.39698576841553,,0,,0.0,
2,21.0,easy,ECP,explanation,control,prediction,2,prediction,visible,0.0,b,2.0,b,,2,3,2,3,0.0,825.845999809273,2023-07-26 18:57:08.697000+00:00,22,1.0,0.0,,,2.3978952727983707,,2,,0.0,
2,21.0,easy,ECP,explanation,control,prediction,3,prediction,visible,1.0,b,0.0,b,,2,1,2,1,0.0,2888.1959998092498,2023-07-26 18:57:15.109000+00:00,23,0.999,0.0,,,2.39698576841553,,2,,0.0,
2,21.0,easy,ECP,explanation,control,prediction,4,prediction,visible,2.0,b,2.0,a,,1,3,3,1,0.0,6476.11899980926,2023-07-26 18:57:25.111000+00:00,24,0.0,0.429,,,1.665818245870208,,3,,0.0,
2,21.0,easy,ECP,explanation,control,prediction,5,prediction,visible,3.0,b,3.0,b,,1,3,3,3,1.0,3092.526999809256,2023-07-26 18:57:31.724000+00:00,25,0.0,1.0,,,2.3978952727983707,,3,,1.0,
2,21.0,easy,ECP,explanation,control,prediction,1,prediction,hidden,2.0,a,,a,,3,1,1,1,1.0,3146.7249999523046,2023-07-26 18:57:38.391000+00:00,26,0.0,0.286,0.0,0.0,1.3506671834767394,0.0,1,,1.0,
2,21.0,easy,ECP,explanation,control,prediction,2,prediction,hidden,3.0,a,,a,,2,1,2,2,1.0,1213.2679998569656,2023-07-26 18:57:42.633000+00:00,27,0.333,0.0,0.0,0.0,1.4655675420143983,0.0,2,,1.0,
2,21.0,easy,ECP,explanation,control,prediction,3,prediction,hidden,3.0,b,,a,,3,1,1,1,1.0,788.5039999523433,2023-07-26 18:57:46.441000+00:00,28,0.0,0.666,0.0,0.667,2.0360119837525,2.0373166153791646,1,1,1.0,1.0
2,21.0,easy,ECP,explanation,control,prediction,4,prediction,hidden,1.0,b,,a,,2,1,2,2,1.0,2500.7439998092595,2023-07-26 18:57:51.954000+00:00,29,0.999,0.0,1.0,0.0,2.39698576841553,2.3978952727983707,2,2,1.0,1.0
2,21.0,easy,ECP,explanation,control,prediction,5,prediction,hidden,3.0,a,,b,,2,1,2,1,0.0,5671.631999809237,2023-07-26 18:58:00.658000+00:00,30,0.333,0.0,0.0,0.0,1.4655675420143983,0.0,2,,0.0,
3,21.0,easy,ECP,explanation,control,prediction,1,explanation,visible,2.0,a,0.0,a,2.0,,,1,2,0.0,8558.54200009536,2023-07-26 18:58:42.167000+00:00,1,0.0,0.615,,,1.967112356705916,,1,,0.0,
3,21.0,easy,ECP,explanation,control,prediction,2,explanation,visible,3.0,a,1.0,b,0.0,,,1,1,1.0,4847.511000095343,2023-07-26 18:58:50.039000+00:00,2,0.0,0.599,,,1.9444805562457188,,1,,1.0,
3,21.0,easy,ECP,explanation,control,prediction,3,explanation,visible,0.0,b,2.0,a,3.0,,,2,2,1.0,1212.8699999523233,2023-07-26 18:58:54.271000+00:00,3,0.384,0.0,,,1.5769147207285403,,2,,1.0,
3,21.0,easy,ECP,explanation,control,prediction,4,explanation,visible,3.0,a,1.0,a,0.0,,,1,1,1.0,3827.9560000476777,2023-07-26 18:59:01.120000+00:00,4,0.0,0.598,,,1.943048916774281,,1,,1.0,
3,21.0,easy,ECP,explanation,control,prediction,5,explanation,visible,0.0,a,2.0,b,2.0,,,2,2,1.0,3993.782999999996,2023-07-26 18:59:08.135000+00:00,5,0.999,0.0,,,2.39698576841553,,2,,1.0,
3,21.0,easy,ECP,explanation,control,prediction,1,explanation,hidden,2.0,b,,b,2.0,,,2,2,1.0,5371.201000095345,2023-07-26 18:59:16.680000+00:00,6,0.615,0.0,1.0,0.0,1.967112356705916,2.3978952727983707,2,2,1.0,1.0
3,21.0,easy,ECP,explanation,control,prediction,2,explanation,hidden,3.0,b,,a,0.0,,,2,2,1.0,5291.827000047662,2023-07-26 18:59:24.983000+00:00,7,0.599,0.0,0.999,0.0,1.9444805562457188,2.39698576841553,2,2,1.0,1.0
3,21.0,easy,ECP,explanation,control,prediction,3,explanation,hidden,2.0,a,,a,2.0,,,1,1,1.0,8848.119999999995,2023-07-26 18:59:36.840000+00:00,8,0.0,0.615,0.0,1.0,1.967112356705916,2.3978952727983707,1,1,1.0,1.0
3,21.0,easy,ECP,explanation,control,prediction,4,explanation,hidden,3.0,a,,a,2.0,,,1,2,0.0,2981.628999952344,2023-07-26 18:59:42.839000+00:00,9,0.0,0.401,0.0,0.001,1.6114359150967734,0.009950330853168,1,1,0.0,0.0
3,21.0,easy,ECP,explanation,control,prediction,5,explanation,hidden,0.0,b,,a,0.0,,,2,1,0.0,3485.504000143032,2023-07-26 18:59:49.343000+00:00,10,0.615,0.0,0.615,0.0,1.967112356705916,1.967112356705916,2,2,0.0,0.0
3,21.0,easy,ECP,explanation,control,prediction,1,control,visible,2.0,a,3.0,,3.0,a,b,b,a,0.0,3013.5199999522883,2023-07-26 19:00:19.688000+00:00,11,0.0,1.0,,,2.3978952727983707,,b,,0.0,
3,21.0,easy,ECP,explanation,control,prediction,2,control,visible,0.0,a,2.0,,2.0,a,b,b,b,1.0,880.4890000000014,2023-07-26 19:00:24.087000+00:00,12,0.0,1.0,,,2.3978952727983707,,b,,1.0,
3,21.0,easy,ECP,explanation,control,prediction,3,control,visible,3.0,b,3.0,,0.0,a,b,a,a,1.0,5224.619000143022,2023-07-26 19:00:32.831000+00:00,13,0.4,0.0,,,1.6094379124341005,,a,,1.0,
3,21.0,easy,ECP,explanation,control,prediction,4,control,visible,0.0,a,2.0,,0.0,a,b,a,b,0.0,2955.169999952312,2023-07-26 19:00:39.295000+00:00,14,0.615,0.0,,,1.967112356705916,,a,,0.0,
3,21.0,easy,ECP,explanation,control,prediction,5,control,visible,0.0,a,2.0,,3.0,a,b,a,a,1.0,824.4830000476795,2023-07-26 19:00:43.631000+00:00,15,0.385,0.0,,,1.5789787049493915,,a,,1.0,
3,21.0,easy,ECP,explanation,control,prediction,1,control,hidden,2.0,,,,1.0,ab,aa,aa,ab,0.0,5140.411000047694,2023-07-26 19:00:52.446000+00:00,16,0.0,0.231,0.0,0.0,1.1969481893889715,0.0,aa,,0.0,
3,21.0,easy,ECP,explanation,control,prediction,2,control,hidden,0.0,,,,3.0,ab,aa,aa,aa,1.0,5910.575000047684,2023-07-26 19:01:01.366000+00:00,17,0.0,0.384,0.0,0.385,1.5769147207285403,1.5789787049493915,aa,aa,1.0,1.0
3,21.0,easy,ECP,explanation,control,prediction,3,control,hidden,3.0,,,,3.0,bb,ba,bb,bb,1.0,4162.243999952334,2023-07-26 19:01:08.534000+00:00,18,0.999,0.0,1.0,0.0,2.39698576841553,2.3978952727983707,bb,bb,1.0,1.0
3,21.0,easy,ECP,explanation,control,prediction,4,control,hidden,3.0,,,,2.0,aa,bb,aa,aa,1.0,4267.83100009535,2023-07-26 19:01:15.806000+00:00,19,0.4,0.0,0.0,0.0,1.6094379124341005,0.0,aa,,1.0,
3,21.0,easy,ECP,explanation,control,prediction,5,control,hidden,2.0,,,,3.0,aa,ab,ab,aa,0.0,3136.4409999523195,2023-07-26 19:01:21.958000+00:00,20,0.0,0.384,0.0,0.0,1.5769147207285403,0.0,ab,,0.0,
3,21.0,easy,ECP,explanation,control,prediction,1,prediction,visible,0.0,b,2.0,b,,2,3,2,2,1.0,1604.5500001430628,2023-07-26 19:01:38.127000+00:00,21,1.0,0.0,,,2.3978952727983707,,2,,1.0,
3,21.0,easy,ECP,explanation,control,prediction,2,prediction,visible,1.0,b,0.0,b,,2,1,2,2,1.0,2479.421000047704,2023-07-26 19:01:44.135000+00:00,22,1.0,0.0,,,2.3978952727983707,,2,,1.0,
3,21.0,easy,ECP,explanation,control,prediction,3,prediction,visible,2.0,a,3.0,a,,0,3,0,0,1.0,5687.401000143029,2023-07-26 19:01:53.342000+00:00,23,0.4,0.0,,,1.6094379124341005,,0,,1.0,
3,21.0,easy,ECP,explanation,control,prediction,4,prediction,visible,3.0,a,1.0,a,,0,1,0,0,1.0,2367.5370001430274,2023-07-26 19:01:59.222000+00:00,24,0.999,0.0,,,2.39698576841553,,0,,1.0,
3,21.0,easy,ECP,explanation,control,prediction,5,prediction,visible,2.0,b,2.0,a,,1,3,3,3,1.0,1852.3940000477007,2023-07-26 19:02:04.591000+00:00,25,0.0,0.385,,,1.5789787049493915,,3,,1.0,
3,21.0,easy,ECP,explanation,control,prediction,1,prediction,hidden,0.0,b,,a,,3,0,0,0,1.0,5573.687000143051,2023-07-26 19:02:13.678000+00:00,26,0.385,0.615,0.385,0.615,0.3881336517565244,0.3881336517565244,0,0,1.0,1.0
3,21.0,easy,ECP,explanation,control,prediction,2,prediction,hidden,3.0,b,,a,,3,1,1,1,1.0,5782.60800004768,2023-07-26 19:02:22.471000+00:00,27,0.0,0.6,0.0,0.6,1.9459101490553128,1.9459101490553128,1,1,1.0,1.0
3,21.0,easy,ECP,explanation,control,prediction,3,prediction,hidden,2.0,a,,a,,3,1,1,3,0.0,4238.664000047662,2023-07-26 19:02:29.727000+00:00,28,0.0,0.231,0.0,0.0,1.1969481893889715,0.0,1,,0.0,
3,21.0,easy,ECP,explanation,control,prediction,4,prediction,hidden,2.0,a,,b,,0,3,3,3,1.0,3045.085000095365,2023-07-26 19:02:35.783000+00:00,29,0.0,0.385,0.0,0.0,1.5789787049493915,0.0,3,,1.0,
3,21.0,easy,ECP,explanation,control,prediction,5,prediction,hidden,3.0,a,,b,,2,1,2,2,1.0,3123.002999952296,2023-07-26 19:02:41.911000+00:00,30,0.4,0.001,0.001,0.001,1.5994875815809322,0.0,2,,1.0,
4,21.0,easy,EPC,explanation,prediction,control,1,explanation,visible,0.0,a,2.0,a,0.0,,,2,2,1.0,9464.932999999728,2023-07-26 19:03:40.430000+00:00,1,0.588,0.0,,,1.928618651945252,,2,,1.0,
4,21.0,easy,EPC,explanation,prediction,control,2,explanation,visible,3.0,a,1.0,a,0.0,,,1,2,0.0,3409.4459999998217,2023-07-26 19:03:47.005000+00:00,2,0.0,0.713,,,2.0955609235597192,,1,,0.0,
4,21.0,easy,EPC,explanation,prediction,control,3,explanation,visible,0.0,a,2.0,b,2.0,,,2,1,0.0,6244.814999999711,2023-07-26 19:03:56.372000+00:00,3,0.999,0.0,,,2.39698576841553,,2,,0.0,
4,21.0,easy,EPC,explanation,prediction,control,4,explanation,visible,0.0,b,2.0,a,0.0,,,2,2,1.0,4033.199999999837,2023-07-26 19:04:03.509000+00:00,4,0.588,0.0,,,1.928618651945252,,2,,1.0,
4,21.0,easy,EPC,explanation,prediction,control,5,explanation,visible,3.0,a,1.0,b,0.0,,,1,1,1.0,1041.0419999996084,2023-07-26 19:04:07.715000+00:00,5,0.0,0.713,,,2.0955609235597192,,1,,1.0,
4,21.0,easy,EPC,explanation,prediction,control,1,explanation,hidden,2.0,b,,b,2.0,,,2,1,0.0,2774.9969999998,2023-07-26 19:04:13.865000+00:00,6,0.588,0.0,1.0,0.0,1.928618651945252,2.3978952727983707,2,2,0.0,0.0
4,21.0,easy,EPC,explanation,prediction,control,2,explanation,hidden,0.0,a,,a,0.0,,,2,2,1.0,2085.794999999809,2023-07-26 19:04:19.058000+00:00,7,0.588,0.0,0.588,0.0,1.928618651945252,1.928618651945252,2,2,1.0,1.0
4,21.0,easy,EPC,explanation,prediction,control,3,explanation,hidden,0.0,b,,a,0.0,,,2,2,1.0,1434.2979999997187,2023-07-26 19:04:23.605000+00:00,8,0.588,0.0,0.588,0.0,1.928618651945252,1.928618651945252,2,2,1.0,1.0
4,21.0,easy,EPC,explanation,prediction,control,4,explanation,hidden,3.0,b,,a,0.0,,,2,2,1.0,1335.7739999998012,2023-07-26 19:04:28.006000+00:00,9,0.713,0.001,0.999,0.0,2.085610592706551,2.39698576841553,2,2,1.0,1.0
4,21.0,easy,EPC,explanation,prediction,control,5,explanation,hidden,3.0,a,,b,2.0,,,1,2,0.0,1901.707999999635,2023-07-26 19:04:33.043000+00:00,10,0.001,0.286,0.0,0.0,1.3407168526235715,0.0,1,,0.0,
4,21.0,easy,EPC,explanation,prediction,control,1,prediction,visible,0.0,b,2.0,b,,2,3,2,2,1.0,1882.0849999996133,2023-07-26 19:04:51.972000+00:00,11,1.0,0.0,,,2.3978952727983707,,2,,1.0,
4,21.0,easy,EPC,explanation,prediction,control,2,prediction,visible,2.0,a,3.0,a,,0,3,0,0,1.0,1533.7490000000107,2023-07-26 19:04:57.153000+00:00,12,0.286,0.0,,,1.3506671834767394,,0,,1.0,
4,21.0,easy,EPC,explanation,prediction,control,3,prediction,visible,1.0,a,0.0,a,,2,0,2,0,0.0,2361.6279999996186,2023-07-26 19:05:03.098000+00:00,13,1.0,0.0,,,2.3978952727983707,,2,,0.0,
4,21.0,easy,EPC,explanation,prediction,control,4,prediction,visible,3.0,a,1.0,a,,0,1,0,0,1.0,2520.341999999713,2023-07-26 19:05:09.172000+00:00,14,0.999,0.0,,,2.39698576841553,,0,,1.0,
4,21.0,easy,EPC,explanation,prediction,control,5,prediction,visible,2.0,a,3.0,a,,3,1,1,1,1.0,1585.3999999997905,2023-07-26 19:05:14.353000+00:00,15,0.0,0.714,,,2.0967901800144486,,1,,1.0,
4,21.0,easy,EPC,explanation,prediction,control,1,prediction,hidden,3.0,b,,a,,3,1,1,1,1.0,2557.700000000012,2023-07-26 19:05:20.524000+00:00,16,0.0,0.713,0.0,0.714,2.0955609235597192,2.0967901800144486,1,1,1.0,1.0
4,21.0,easy,EPC,explanation,prediction,control,2,prediction,hidden,0.0,b,,a,,3,0,0,0,1.0,10599.247999999903,2023-07-26 19:05:34.265000+00:00,17,0.412,0.588,0.412,0.588,0.2954642128938357,0.2954642128938357,0,0,1.0,1.0
4,21.0,easy,EPC,explanation,prediction,control,3,prediction,hidden,2.0,a,,b,,1,3,3,3,1.0,3421.41899999982,2023-07-26 19:05:40.784000+00:00,18,0.0,0.411,0.0,0.0,1.631199404215613,0.0,3,,1.0,
4,21.0,easy,EPC,explanation,prediction,control,4,prediction,hidden,2.0,b,,a,,1,3,3,1,0.0,3486.998999999836,2023-07-26 19:05:47.365000+00:00,19,0.0,0.412,0.0,0.412,1.6331544390514163,1.6331544390514163,3,3,0.0,0.0
4,21.0,easy,EPC,explanation,prediction,control,5,prediction,hidden,2.0,a,,a,,3,1,1,1,1.0,1872.4379999997327,2023-07-26 19:05:52.316000+00:00,20,0.0,0.294,0.0,0.0,1.3711807233098423,0.0,1,,1.0,
4,21.0,easy,EPC,explanation,prediction,control,1,control,visible,3.0,b,3.0,,3.0,a,b,b,b,1.0,4191.56699999969,2023-07-26 19:06:13.248000+00:00,21,0.0,0.999,,,2.39698576841553,,b,,1.0,
4,21.0,easy,EPC,explanation,prediction,control,2,control,visible,0.0,a,2.0,,2.0,a,b,b,b,1.0,1083.2009999996517,2023-07-26 19:06:17.921000+00:00,22,0.0,1.0,,,2.3978952727983707,,b,,1.0,
4,21.0,easy,EPC,explanation,prediction,control,3,control,visible,0.0,b,2.0,,2.0,a,b,b,b,1.0,1976.3899999996647,2023-07-26 19:06:23.497000+00:00,23,0.0,1.0,,,2.3978952727983707,,b,,1.0,
4,21.0,easy,EPC,explanation,prediction,control,4,control,visible,3.0,b,3.0,,0.0,a,b,a,a,1.0,2684.5130000000354,2023-07-26 19:06:29.737000+00:00,24,0.286,0.0,,,1.3506671834767394,,a,,1.0,
4,21.0,easy,EPC,explanation,prediction,control,5,control,visible,2.0,a,3.0,,3.0,a,b,b,a,0.0,4730.829999999842,2023-07-26 19:06:37.999000+00:00,25,0.0,0.999,,,2.39698576841553,,b,,0.0,
4,21.0,easy,EPC,explanation,prediction,control,1,control,hidden,0.0,,,,3.0,ab,aa,aa,aa,1.0,5479.794999999576,2023-07-26 19:06:47.246000+00:00,26,0.0,0.412,0.0,0.412,1.6331544390514163,1.6331544390514163,aa,aa,1.0,1.0
4,21.0,easy,EPC,explanation,prediction,control,2,control,hidden,3.0,,,,2.0,aa,bb,aa,bb,0.0,4113.287000000011,2023-07-26 19:06:54.495000+00:00,27,0.286,0.001,0.0,0.0,1.340716852623571,0.0,aa,,0.0,
4,21.0,easy,EPC,explanation,prediction,control,3,control,hidden,2.0,,,,2.0,aa,bb,bb,bb,1.0,2344.307999999612,2023-07-26 19:06:59.924000+00:00,28,0.588,1.0,1.0,1.0,0.4692766208531184,0.0,bb,,1.0,
4,21.0,easy,EPC,explanation,prediction,control,4,control,hidden,3.0,,,,3.0,bb,ba,bb,ba,0.0,6899.357999999775,2023-07-26 19:07:09.895000+00:00,29,0.998,0.0,0.999,0.0,2.3960754360813845,2.39698576841553,bb,bb,0.0,0.0
4,21.0,easy,EPC,explanation,prediction,control,5,control,hidden,0.0,,,,0.0,aa,ab,aa,aa,1.0,3768.006999999867,2023-07-26 19:07:16.762000+00:00,30,0.588,0.0,0.588,0.0,1.928618651945252,1.928618651945252,aa,aa,1.0,1.0
5,21.0,easy,CEP,control,explanation,prediction,1,control,visible,0.0,a,2.0,,2.0,a,b,b,b,1.0,3587.9080000029644,2023-07-26 19:04:14.642000+00:00,1,0.0,1.0,,,2.3978952727983707,,b,,1.0,
5,21.0,easy,CEP,control,explanation,prediction,2,control,visible,2.0,a,3.0,,3.0,a,b,b,a,0.0,3480.237999991048,2023-07-26 19:04:21.634000+00:00,2,0.0,0.999,,,2.39698576841553,,b,,0.0,
5,21.0,easy,CEP,control,explanation,prediction,3,control,visible,2.0,a,3.0,,1.0,a,b,a,a,1.0,1760.9150000030058,2023-07-26 19:04:26.898000+00:00,3,0.6,0.0,,,1.9459101490553128,,a,,1.0,
5,21.0,easy,CEP,control,explanation,prediction,4,control,visible,0.0,b,2.0,,2.0,a,b,b,b,1.0,1398.3110000029556,2023-07-26 19:04:31.802000+00:00,4,0.0,1.0,,,2.3978952727983707,,b,,1.0,
5,21.0,easy,CEP,control,explanation,prediction,5,control,visible,0.0,a,2.0,,3.0,a,b,a,a,1.0,3194.5690000000177,2023-07-26 19:04:38.514000+00:00,5,0.4,0.0,,,1.6094379124341005,,a,,1.0,
5,21.0,easy,CEP,control,explanation,prediction,1,control,hidden,3.0,,,,2.0,ab,ba,ab,ab,1.0,3916.4219999969937,2023-07-26 19:04:46.186000+00:00,6,0.4,0.001,0.0,0.0,1.5994875815809322,0.0,ab,,1.0,
5,21.0,easy,CEP,control,explanation,prediction,2,control,hidden,2.0,,,,1.0,ab,aa,aa,aa,1.0,3198.7499999970314,2023-07-26 19:04:52.401000+00:00,7,0.0,0.24,0.0,0.0,1.2237754316221154,0.0,aa,,1.0,
5,21.0,easy,CEP,control,explanation,prediction,3,control,hidden,2.0,,,,3.0,aa,ab,ab,ab,1.0,2998.211999991036,2023-07-26 19:04:58.417000+00:00,8,0.0,0.4,0.0,0.0,1.6094379124341005,0.0,ab,,1.0,
5,21.0,easy,CEP,control,explanation,prediction,4,control,hidden,0.0,,,,3.0,ab,aa,aa,ab,0.0,2918.413999991084,2023-07-26 19:05:04.337000+00:00,9,0.0,0.4,0.0,0.4,1.6094379124341005,1.6094379124341005,aa,aa,0.0,0.0
5,21.0,easy,CEP,control,explanation,prediction,5,control,hidden,0.0,,,,2.0,aa,bb,bb,bb,1.0,3809.0559999970137,2023-07-26 19:05:11.161000+00:00,10,0.0,0.999,0.0,1.0,2.39698576841553,2.3978952727983707,bb,bb,1.0,1.0
5,21.0,easy,CEP,control,explanation,prediction,1,explanation,visible,0.0,a,2.0,a,0.0,,,2,1,0.0,6381.67499999702,2023-07-26 19:05:48.633000+00:00,11,0.6,0.0,,,1.9459101490553128,,2,,0.0,
5,21.0,easy,CEP,control,explanation,prediction,2,explanation,visible,2.0,a,0.0,b,2.0,,,1,2,0.0,3733.856999991054,2023-07-26 19:05:55.386000+00:00,12,0.0,0.6,,,1.9459101490553128,,1,,0.0,
5,21.0,easy,CEP,control,explanation,prediction,3,explanation,visible,0.0,a,2.0,b,2.0,,,2,2,1.0,4376.150000000023,2023-07-26 19:06:02.778000+00:00,13,0.999,0.0,,,2.39698576841553,,2,,1.0,
5,21.0,easy,CEP,control,explanation,prediction,4,explanation,visible,3.0,a,0.0,a,2.0,,,1,1,1.0,4561.472000000009,2023-07-26 19:06:10.347000+00:00,14,0.0,0.4,,,1.6094379124341005,,1,,1.0,
5,21.0,easy,CEP,control,explanation,prediction,5,explanation,visible,0.0,b,2.0,a,3.0,,,2,2,1.0,4138.620000002964,2023-07-26 19:06:17.490000+00:00,15,0.4,0.0,,,1.6094379124341005,,2,,1.0,
5,21.0,easy,CEP,control,explanation,prediction,1,explanation,hidden,3.0,a,,b,0.0,,,1,1,1.0,3148.656999994011,2023-07-26 19:06:23.650000+00:00,16,0.001,0.599,0.0,0.999,1.9345302253925507,2.39698576841553,1,1,1.0,1.0
5,21.0,easy,CEP,control,explanation,prediction,2,explanation,hidden,3.0,a,,b,2.0,,,1,2,0.0,2837.545999994036,2023-07-26 19:06:29.505000+00:00,17,0.001,0.4,0.0,0.0,1.5994875815809322,0.0,1,,0.0,
5,21.0,easy,CEP,control,explanation,prediction,3,explanation,hidden,0.0,a,,a,3.0,,,2,1,0.0,3083.7790000030072,2023-07-26 19:06:35.601000+00:00,18,0.4,0.0,0.4,0.0,1.6094379124341005,1.6094379124341005,2,2,0.0,0.0
5,21.0,easy,CEP,control,explanation,prediction,4,explanation,hidden,0.0,a,,a,0.0,,,2,1,0.0,5248.212999999989,2023-07-26 19:06:43.866000+00:00,19,0.6,0.0,0.6,0.0,1.9459101490553128,1.9459101490553128,2,2,0.0,0.0
5,21.0,easy,CEP,control,explanation,prediction,5,explanation,hidden,0.0,b,,a,0.0,,,2,1,0.0,2494.010000002978,2023-07-26 19:06:49.361000+00:00,20,0.6,0.0,0.6,0.0,1.9459101490553128,1.9459101490553128,2,2,0.0,0.0
5,21.0,easy,CEP,control,explanation,prediction,1,prediction,visible,1.0,a,0.0,a,,2,0,2,0,0.0,2618.8669999970007,2023-07-26 19:07:10.803000+00:00,21,1.0,0.0,,,2.3978952727983707,,2,,0.0,
5,21.0,easy,CEP,control,explanation,prediction,2,prediction,visible,2.0,a,3.0,a,,0,3,0,0,1.0,1756.6519999970333,2023-07-26 19:07:16.074000+00:00,22,0.4,0.0,,,1.6094379124341005,,0,,1.0,
5,21.0,easy,CEP,control,explanation,prediction,3,prediction,visible,3.0,a,1.0,a,,0,1,0,1,0.0,3737.971000002988,2023-07-26 19:07:23.322000+00:00,23,0.999,0.0,,,2.39698576841553,,0,,0.0,
5,21.0,easy,CEP,control,explanation,prediction,4,prediction,visible,3.0,a,1.0,b,,3,0,0,3,0.0,2321.709999996994,2023-07-26 19:07:29.155000+00:00,24,0.0,0.999,,,2.39698576841553,,0,,0.0,
5,21.0,easy,CEP,control,explanation,prediction,5,prediction,visible,3.0,b,3.0,a,,1,3,1,1,1.0,3607.135999999999,2023-07-26 19:07:36.274000+00:00,25,0.6,0.0,,,1.9459101490553128,,1,,1.0,
5,21.0,easy,CEP,control,explanation,prediction,1,prediction,hidden,0.0,a,,a,,1,0,0,0,1.0,2890.5259999910486,2023-07-26 19:07:42.674000+00:00,26,0.0,0.6,0.0,0.6,1.9459101490553128,1.9459101490553128,0,0,1.0,1.0
5,21.0,easy,CEP,control,explanation,prediction,2,prediction,hidden,3.0,b,,a,,3,1,1,1,1.0,2838.853999994055,2023-07-26 19:07:48.522000+00:00,27,0.0,0.599,0.0,0.6,1.9444805562457188,1.9459101490553128,1,1,1.0,1.0
5,21.0,easy,CEP,control,explanation,prediction,3,prediction,hidden,2.0,a,,b,,0,3,3,3,1.0,4052.4139999940526,2023-07-26 19:07:55.586000+00:00,28,0.0,0.4,0.0,0.0,1.6094379124341005,0.0,3,,1.0,
5,21.0,easy,CEP,control,explanation,prediction,4,prediction,hidden,3.0,a,,b,,2,1,2,2,1.0,2673.792000000016,2023-07-26 19:08:01.274000+00:00,29,0.4,0.0,0.0,0.0,1.6094379124341005,0.0,2,,1.0,
5,21.0,easy,CEP,control,explanation,prediction,5,prediction,hidden,3.0,a,,a,,2,1,2,2,1.0,2903.339999996999,2023-07-26 19:08:07.186000+00:00,30,0.4,0.0,0.0,0.0,1.6094379124341005,0.0,2,,1.0,
6,21.0,easy,PEC,prediction,explanation,control,1,prediction,visible,3.0,b,3.0,b,,1,3,3,3,1.0,7754.559999952326,2023-07-26 19:05:22.893000+00:00,1,0.25,0.25,,,0.0,,,,,
6,21.0,easy,PEC,prediction,explanation,control,2,prediction,visible,3.0,b,3.0,a,,1,3,1,1,1.0,4542.378999928478,2023-07-26 19:05:30.953000+00:00,2,0.571,0.0,,,1.9035989509835904,,1,,1.0,
6,21.0,easy,PEC,prediction,explanation,control,3,prediction,visible,3.0,a,1.0,a,,0,1,0,0,1.0,5583.302999904612,2023-07-26 19:05:40.053000+00:00,3,0.999,0.0,,,2.39698576841553,,0,,1.0,
6,21.0,easy,PEC,prediction,explanation,control,4,prediction,visible,0.0,b,2.0,b,,2,3,2,2,1.0,5123.974999952305,2023-07-26 19:05:48.686000+00:00,4,1.0,0.0,,,2.3978952727983707,,2,,1.0,
6,21.0,easy,PEC,prediction,explanation,control,5,prediction,visible,2.0,a,3.0,a,,3,1,1,1,1.0,3158.8499999999767,2023-07-26 19:05:55.346000+00:00,5,0.0,0.571,,,1.9035989509835904,,1,,1.0,
6,21.0,easy,PEC,prediction,explanation,control,1,prediction,hidden,2.0,a,,a,,3,1,1,3,0.0,11748.97399992845,2023-07-26 19:06:10.729000+00:00,6,0.0,0.21,0.0,0.0,1.1314021114911004,0.0,1,,0.0,
6,21.0,easy,PEC,prediction,explanation,control,2,prediction,hidden,1.0,b,,a,,2,1,2,1,0.0,12516.524999952291,2023-07-26 19:06:26.250000+00:00,7,0.25,0.143,1.0,0.0,0.3648717111429108,2.3978952727983707,2,2,0.0,0.0
6,21.0,easy,PEC,prediction,explanation,control,3,prediction,hidden,3.0,b,,a,,3,1,1,1,1.0,4217.291999976151,2023-07-26 19:06:33.470000+00:00,8,0.092,0.143,0.0,0.0,0.2355660713127668,0.0,1,,1.0,
6,21.0,easy,PEC,prediction,explanation,control,4,prediction,hidden,0.0,b,,a,,3,0,0,3,0.0,3726.576999952318,2023-07-26 19:06:40.206000+00:00,9,0.368,0.631,0.368,0.631,0.4459451638321318,0.4459451638321318,0,0,0.0,0.0
6,21.0,easy,PEC,prediction,explanation,control,5,prediction,hidden,3.0,a,,b,,2,1,2,2,1.0,5691.043999952322,2023-07-26 19:06:48.914000+00:00,10,0.571,0.143,0.25,0.25,1.0157076936311331,0.0,2,,1.0,
6,21.0,easy,PEC,prediction,explanation,control,1,explanation,visible,0.0,b,2.0,a,3.0,,,2,2,1.0,3817.302999976149,2023-07-26 19:07:30.765000+00:00,11,0.368,0.0,,,1.5432981099295553,,2,,1.0,
6,21.0,easy,PEC,prediction,explanation,control,2,explanation,visible,2.0,a,0.0,a,2.0,,,1,1,1.0,4526.260999952327,2023-07-26 19:07:38.301000+00:00,12,0.0,0.631,,,1.9892432737616872,,1,,1.0,
6,21.0,easy,PEC,prediction,explanation,control,3,explanation,visible,3.0,a,1.0,a,0.0,,,1,1,1.0,1531.173999999999,2023-07-26 19:07:42.850000+00:00,13,0.25,0.143,,,0.3648717111429108,,2,,0.0,
6,21.0,easy,PEC,prediction,explanation,control,4,explanation,visible,0.0,a,2.0,b,2.0,,,2,2,1.0,409.4339999523363,2023-07-26 19:07:46.273000+00:00,14,0.999,0.0,,,2.39698576841553,,2,,1.0,
6,21.0,easy,PEC,prediction,explanation,control,5,explanation,visible,3.0,a,0.0,a,2.0,,,1,1,1.0,359.30999992846046,2023-07-26 19:07:49.653000+00:00,15,0.25,0.428,,,0.4111631292228022,,1,,1.0,
6,21.0,easy,PEC,prediction,explanation,control,1,explanation,hidden,3.0,a,,b,2.0,,,1,2,0.0,863.3040000000037,2023-07-26 19:07:53.538000+00:00,16,0.625,0.429,0.999,0.0,0.3151832229963753,2.39698576841553,2,2,1.0,1.0
6,21.0,easy,PEC,prediction,explanation,control,2,explanation,hidden,2.0,a,,a,2.0,,,1,1,1.0,495.3389999284991,2023-07-26 19:07:57.049000+00:00,17,0.0,0.723,0.0,0.999,2.1077860146889784,2.39698576841553,1,1,1.0,1.0
6,21.0,easy,PEC,prediction,explanation,control,3,explanation,hidden,0.0,b,,a,0.0,,,2,2,1.0,562.1629999046563,2023-07-26 19:08:00.630000+00:00,18,0.631,0.0,0.631,0.0,1.9892432737616872,1.9892432737616872,2,2,1.0,1.0
6,21.0,easy,PEC,prediction,explanation,control,4,explanation,hidden,0.0,a,,a,3.0,,,2,1,0.0,297.98799995234003,2023-07-26 19:08:03.946000+00:00,19,0.368,0.0,0.368,0.0,1.5432981099295553,1.5432981099295553,2,2,0.0,0.0
6,21.0,easy,PEC,prediction,explanation,control,5,explanation,hidden,0.0,b,,b,2.0,,,2,2,1.0,984.442999952298,2023-07-26 19:08:07.945000+00:00,20,1.0,0.0,1.0,0.0,2.3978952727983707,2.3978952727983707,2,2,1.0,1.0
6,21.0,easy,PEC,prediction,explanation,control,1,control,visible,0.0,b,2.0,,2.0,a,b,b,b,1.0,1895.693999904616,2023-07-26 19:08:26.873000+00:00,21,0.0,1.0,,,2.3978952727983707,,b,,1.0,
6,21.0,easy,PEC,prediction,explanation,control,2,control,visible,3.0,b,3.0,,3.0,a,b,b,b,1.0,1132.3409999523428,2023-07-26 19:08:31.522000+00:00,22,0.0,0.25,,,1.2527629684953678,,b,,1.0,
6,21.0,easy,PEC,prediction,explanation,control,3,control,visible,0.0,a,2.0,,3.0,a,b,a,a,1.0,4470.590999952343,2023-07-26 19:08:39.505000+00:00,23,0.368,0.0,,,1.5432981099295553,,a,,1.0,
6,21.0,easy,PEC,prediction,explanation,control,4,control,visible,2.0,a,3.0,,1.0,a,b,a,a,1.0,654.9699999523,2023-07-26 19:08:43.665000+00:00,24,0.571,0.25,,,0.6508359824882224,,a,,1.0,
6,21.0,easy,PEC,prediction,explanation,control,5,control,visible,2.0,b,2.0,,2.0,a,b,b,b,1.0,725.0649999523303,2023-07-26 19:08:47.898000+00:00,25,0.0,1.0,,,2.3978952727983707,,b,,1.0,
6,21.0,easy,PEC,prediction,explanation,control,1,control,hidden,2.0,,,,2.0,aa,bb,bb,bb,1.0,2484.7829999761307,2023-07-26 19:08:54.021000+00:00,26,0.631,1.0,1.0,1.0,0.4086519990366836,0.0,bb,,1.0,
6,21.0,easy,PEC,prediction,explanation,control,2,control,hidden,3.0,,,,2.0,ab,ba,ab,ab,1.0,9886.477999928466,2023-07-26 19:09:06.917000+00:00,27,0.571,0.25,0.25,1.0,0.6508359824882224,1.1451323043030028,ab,ba,1.0,0.0
6,21.0,easy,PEC,prediction,explanation,control,3,control,hidden,0.0,,,,3.0,ab,aa,aa,aa,1.0,2566.7239999999874,2023-07-26 19:09:12.486000+00:00,28,0.0,0.368,0.0,0.368,1.5432981099295553,1.5432981099295553,aa,aa,1.0,1.0
6,21.0,easy,PEC,prediction,explanation,control,4,control,hidden,0.0,,,,2.0,aa,bb,bb,bb,1.0,1548.4919999284905,2023-07-26 19:09:17.045000+00:00,29,0.0,0.999,0.0,1.0,2.39698576841553,2.3978952727983707,bb,bb,1.0,1.0
6,21.0,easy,PEC,prediction,explanation,control,5,control,hidden,2.0,,,,1.0,ab,aa,aa,aa,1.0,2038.1959999761311,2023-07-26 19:09:22.098000+00:00,30,0.092,0.21,0.0,0.0,0.4790769254514103,0.0,aa,,1.0,
8,21.0,easy,CEP,control,explanation,prediction,1,control,visible,2.0,a,3.0,,1.0,a,b,a,a,1.0,4959.799999999988,2023-07-26 19:18:51.048000+00:00,1,0.666,0.0,,,2.0360119837525,,a,,1.0,
8,21.0,easy,CEP,control,explanation,prediction,2,control,visible,0.0,a,2.0,,0.0,a,b,a,a,1.0,5148.0199999999895,2023-07-26 19:18:59.726000+00:00,2,0.6,0.0,,,1.9459101490553128,,a,,1.0,
8,21.0,easy,CEP,control,explanation,prediction,3,control,visible,0.0,a,2.0,,3.0,a,b,a,a,1.0,3465.8800000000047,2023-07-26 19:19:06.718000+00:00,3,0.4,0.0,,,1.6094379124341005,,a,,1.0,
8,21.0,easy,CEP,control,explanation,prediction,4,control,visible,2.0,b,2.0,,2.0,a,b,b,b,1.0,845.8399999999965,2023-07-26 19:19:11.094000+00:00,4,0.0,1.0,,,2.3978952727983707,,b,,1.0,
8,21.0,easy,CEP,control,explanation,prediction,5,control,visible,3.0,b,3.0,,3.0,a,b,b,b,1.0,932.5800000000164,2023-07-26 19:19:15.558000+00:00,5,0.0,1.0,,,2.3978952727983707,,b,,1.0,
8,21.0,easy,CEP,control,explanation,prediction,1,control,hidden,3.0,,,,3.0,bb,ba,bb,bb,1.0,3328.679999999993,2023-07-26 19:19:22.674000+00:00,6,0.999,0.0,1.0,0.0,2.39698576841553,2.3978952727983707,bb,bb,1.0,1.0
8,21.0,easy,CEP,control,explanation,prediction,2,control,hidden,3.0,,,,2.0,ab,ba,ab,ab,1.0,3424.9400000000023,2023-07-26 19:19:29.130000+00:00,7,0.333,0.0,0.0,0.0,1.4655675420143983,0.0,ab,,1.0,
8,21.0,easy,CEP,control,explanation,prediction,3,control,hidden,3.0,,,,1.0,aa,ba,ba,aa,0.0,7562.719999999972,2023-07-26 19:19:39.724000+00:00,8,0.001,0.666,0.001,0.666,2.026061652899332,2.026061652899332,ba,ba,0.0,0.0
8,21.0,easy,CEP,control,explanation,prediction,4,control,hidden,0.0,,,,2.0,aa,bb,bb,bb,1.0,4800.599999999977,2023-07-26 19:19:47.556000+00:00,9,0.0,0.999,0.0,1.0,2.39698576841553,2.3978952727983707,bb,bb,1.0,1.0
8,21.0,easy,CEP,control,explanation,prediction,5,control,hidden,2.0,,,,2.0,aa,bb,bb,aa,0.0,1532.679999999993,2023-07-26 19:19:52.119000+00:00,10,0.6,1.0,1.0,1.0,0.4519851237430574,0.0,bb,,0.0,
8,21.0,easy,CEP,control,explanation,prediction,1,explanation,visible,0.0,b,2.0,a,0.0,,,2,2,1.0,12201.02000000002,2023-07-26 19:20:31.576000+00:00,11,0.6,0.0,,,1.9459101490553128,,2,,1.0,
8,21.0,easy,CEP,control,explanation,prediction,2,explanation,visible,0.0,b,2.0,a,3.0,,,2,2,1.0,5051.700000000012,2023-07-26 19:20:39.660000+00:00,12,0.4,0.0,,,1.6094379124341005,,2,,1.0,
8,21.0,easy,CEP,control,explanation,prediction,3,explanation,visible,0.0,a,2.0,a,0.0,,,2,2,1.0,3500.119999999996,2023-07-26 19:20:46.190000+00:00,13,0.6,0.0,,,1.9459101490553128,,2,,1.0,
8,21.0,easy,CEP,control,explanation,prediction,4,explanation,visible,2.0,a,0.0,a,2.0,,,1,1,1.0,5579.5,2023-07-26 19:20:54.799000+00:00,14,0.0,0.6,,,1.9459101490553128,,1,,1.0,
8,21.0,easy,CEP,control,explanation,prediction,5,explanation,visible,0.0,a,2.0,b,2.0,,,2,2,1.0,2581.7399999999907,2023-07-26 19:21:00.410000+00:00,15,0.999,0.0,,,2.39698576841553,,2,,1.0,
8,21.0,easy,CEP,control,explanation,prediction,1,explanation,hidden,0.0,b,,a,0.0,,,2,1,0.0,7302.719999999972,2023-07-26 19:21:10.754000+00:00,16,0.6,0.0,0.6,0.0,1.9459101490553128,1.9459101490553128,2,2,0.0,0.0
8,21.0,easy,CEP,control,explanation,prediction,2,explanation,hidden,3.0,a,,a,2.0,,,1,2,0.0,6593.640000000014,2023-07-26 19:21:20.373000+00:00,17,0.0,0.333,0.0,0.0,1.4655675420143983,0.0,1,,0.0,
8,21.0,easy,CEP,control,explanation,prediction,3,explanation,hidden,3.0,a,,b,0.0,,,1,1,1.0,9567.880000000005,2023-07-26 19:21:32.971000+00:00,18,0.0,0.665,0.0,0.997,2.0347056478384444,2.395164274287138,1,1,1.0,1.0
8,21.0,easy,CEP,control,explanation,prediction,4,explanation,hidden,2.0,b,,b,2.0,,,2,2,1.0,6566.119999999995,2023-07-26 19:21:42.566000+00:00,19,0.6,0.0,1.0,0.0,1.9459101490553128,2.3978952727983707,2,2,1.0,1.0
8,21.0,easy,CEP,control,explanation,prediction,5,explanation,hidden,2.0,a,,a,2.0,,,1,2,0.0,5617.340000000026,2023-07-26 19:21:51.212000+00:00,20,0.0,0.6,0.0,1.0,1.9459101490553128,2.3978952727983707,1,1,0.0,0.0
8,21.0,easy,CEP,control,explanation,prediction,1,prediction,visible,3.0,a,1.0,b,,3,0,0,0,1.0,6865.940000000002,2023-07-26 19:22:17.093000+00:00,21,0.0,0.999,,,2.39698576841553,,0,,1.0,
8,21.0,easy,CEP,control,explanation,prediction,2,prediction,visible,1.0,a,0.0,a,,2,0,2,2,1.0,1863.960000000021,2023-07-26 19:22:22.479000+00:00,22,1.0,0.0,,,2.3978952727983707,,2,,1.0,
8,21.0,easy,CEP,control,explanation,prediction,3,prediction,visible,1.0,b,0.0,b,,2,1,2,2,1.0,7757.340000000026,2023-07-26 19:22:33.771000+00:00,23,1.0,0.0,,,2.3978952727983707,,2,,1.0,
8,21.0,easy,CEP,control,explanation,prediction,4,prediction,visible,2.0,a,3.0,a,,0,3,0,0,1.0,7761.679999999993,2023-07-26 19:22:45.066000+00:00,24,0.333,0.0,,,1.4655675420143983,,0,,1.0,
8,21.0,easy,CEP,control,explanation,prediction,5,prediction,visible,3.0,a,1.0,a,,0,1,0,0,1.0,3040.460000000021,2023-07-26 19:22:51.639000+00:00,25,0.997,0.001,,,2.3852139434339708,,0,,1.0,
8,21.0,easy,CEP,control,explanation,prediction,1,prediction,hidden,2.0,a,,b,,1,3,3,3,1.0,5620.280000000028,2023-07-26 19:23:00.802000+00:00,26,0.0,0.4,0.0,0.0,1.6094379124341005,0.0,3,,1.0,
8,21.0,easy,CEP,control,explanation,prediction,2,prediction,hidden,3.0,a,,a,,2,1,2,2,1.0,5517.840000000026,2023-07-26 19:23:09.348000+00:00,27,0.334,0.001,0.001,0.001,1.4579240172591454,0.0,2,,1.0,
8,21.0,easy,CEP,control,explanation,prediction,3,prediction,hidden,0.0,a,,a,,1,0,0,1,0.0,4473.900000000023,2023-07-26 19:23:16.850000+00:00,28,0.0,0.6,0.0,0.6,1.9459101490553128,1.9459101490553128,0,0,0.0,0.0
8,21.0,easy,CEP,control,explanation,prediction,4,prediction,hidden,3.0,a,,b,,2,1,2,1,0.0,4094.979999999981,2023-07-26 19:23:23.978000+00:00,29,0.333,0.0,0.0,0.0,1.4655675420143983,0.0,2,,0.0,
8,21.0,easy,CEP,control,explanation,prediction,5,prediction,hidden,0.0,b,,a,,3,0,0,3,0.0,10174.53999999998,2023-07-26 19:23:37.185000+00:00,30,0.4,0.6,0.4,0.6,0.3364722366212129,0.3364722366212129,0,0,0.0,0.0
7,21.0,easy,ECP,explanation,control,prediction,1,explanation,visible,2.0,a,0.0,a,2.0,,,1,1,1.0,4193.138000000006,2023-07-26 19:20:12.567000+00:00,1,0.0,0.599,,,1.9444805562457188,,1,,1.0,
7,21.0,easy,ECP,explanation,control,prediction,2,explanation,visible,0.0,a,2.0,b,2.0,,,2,2,1.0,1914.4269999940293,2023-07-26 19:20:17.506000+00:00,2,0.998,0.0,,,2.3960754360813845,,2,,1.0,
7,21.0,easy,ECP,explanation,control,prediction,3,explanation,visible,3.0,a,1.0,a,0.0,,,1,1,1.0,979.1329999940352,2023-07-26 19:20:21.487000+00:00,3,0.0,0.748,,,2.137710449803812,,1,,1.0,
7,21.0,easy,ECP,explanation,control,prediction,4,explanation,visible,2.0,a,0.0,b,2.0,,,1,2,0.0,3585.619999999996,2023-07-26 19:20:28.077000+00:00,4,0.0,0.6,,,1.9459101490553128,,1,,0.0,
7,21.0,easy,ECP,explanation,control,prediction,5,explanation,visible,0.0,b,2.0,a,0.0,,,2,2,1.0,454.4189999940281,2023-07-26 19:20:31.563000+00:00,5,0.6,0.0,,,1.9459101490553128,,2,,1.0,
7,21.0,easy,ECP,explanation,control,prediction,1,explanation,hidden,0.0,b,,a,0.0,,,2,1,0.0,1918.813000005961,2023-07-26 19:20:36.660000+00:00,6,0.6,0.001,0.6,0.0,1.935959818202145,1.9459101490553128,2,2,0.0,0.0
7,21.0,easy,ECP,explanation,control,prediction,2,explanation,hidden,2.0,b,,b,2.0,,,2,1,0.0,2049.58099999404,2023-07-26 19:20:41.726000+00:00,7,0.599,0.0,0.999,0.0,1.9444805562457188,2.39698576841553,2,2,0.0,0.0
7,21.0,easy,ECP,explanation,control,prediction,3,explanation,hidden,2.0,a,,a,2.0,,,1,1,1.0,1134.9309999940451,2023-07-26 19:20:45.862000+00:00,8,0.0,0.599,0.0,0.999,1.9444805562457188,2.39698576841553,1,1,1.0,1.0
7,21.0,easy,ECP,explanation,control,prediction,4,explanation,hidden,3.0,a,,b,2.0,,,1,2,0.0,1678.6480000059528,2023-07-26 19:20:50.554000+00:00,9,0.0,0.25,0.0,0.0,1.2527629684953678,0.0,1,,0.0,
7,21.0,easy,ECP,explanation,control,prediction,5,explanation,hidden,3.0,b,,a,0.0,,,2,2,1.0,2878.902999994054,2023-07-26 19:20:56.440000+00:00,10,0.749,0.0,0.999,0.0,2.138889000323256,2.39698576841553,2,2,1.0,1.0
7,21.0,easy,ECP,explanation,control,prediction,1,control,visible,2.0,a,3.0,,1.0,a,b,a,b,0.0,5075.83600000001,2023-07-26 19:21:19.189000+00:00,11,0.75,0.0,,,2.1400661634962708,,a,,0.0,
7,21.0,easy,ECP,explanation,control,prediction,2,control,visible,0.0,b,2.0,,2.0,a,b,b,a,0.0,3053.7700000000186,2023-07-26 19:21:25.751000+00:00,12,0.0,1.0,,,2.3978952727983707,,b,,0.0,
7,21.0,easy,ECP,explanation,control,prediction,3,control,visible,2.0,b,2.0,,2.0,a,b,b,b,1.0,804.4189999999944,2023-07-26 19:21:30.070000+00:00,13,0.0,1.0,,,2.3978952727983707,,b,,1.0,
7,21.0,easy,ECP,explanation,control,prediction,4,control,visible,3.0,b,3.0,,3.0,a,b,b,b,1.0,619.6660000000265,2023-07-26 19:21:34.201000+00:00,14,0.0,1.0,,,2.3978952727983707,,b,,1.0,
7,21.0,easy,ECP,explanation,control,prediction,5,control,visible,2.0,a,3.0,,3.0,a,b,b,a,0.0,1022.25,2023-07-26 19:21:38.738000+00:00,15,0.0,1.0,,,2.3978952727983707,,b,,0.0,
7,21.0,easy,ECP,explanation,control,prediction,1,control,hidden,2.0,,,,3.0,aa,ab,ab,aa,0.0,4696.82400000596,2023-07-26 19:21:47.080000+00:00,16,0.0,0.4,0.0,0.0,1.6094379124341005,0.0,ab,,0.0,
7,21.0,easy,ECP,explanation,control,prediction,2,control,hidden,0.0,,,,0.0,aa,ab,aa,aa,1.0,3926.3769999940414,2023-07-26 19:21:54.010000+00:00,17,0.6,0.0,0.6,0.0,1.9459101490553128,1.9459101490553128,aa,aa,1.0,1.0
7,21.0,easy,ECP,explanation,control,prediction,3,control,hidden,2.0,,,,1.0,ab,aa,aa,aa,1.0,3706.904999994033,2023-07-26 19:22:00.724000+00:00,18,0.0,0.3,0.0,0.0,1.3862943611198906,0.0,aa,,1.0,
7,21.0,easy,ECP,explanation,control,prediction,4,control,hidden,0.0,,,,2.0,aa,bb,bb,aa,0.0,5615.504999994068,2023-07-26 19:22:09.350000+00:00,19,0.0,0.999,0.0,1.0,2.39698576841553,2.3978952727983707,bb,bb,0.0,0.0
7,21.0,easy,ECP,explanation,control,prediction,5,control,hidden,2.0,,,,2.0,aa,bb,bb,aa,0.0,693.2320000000182,2023-07-26 19:22:13.078000+00:00,20,0.6,0.999,1.0,1.0,0.4510756193602167,0.0,bb,,0.0,
7,21.0,easy,ECP,explanation,control,prediction,1,prediction,visible,1.0,a,0.0,a,,2,0,2,2,1.0,2396.552000000025,2023-07-26 19:22:28.617000+00:00,21,1.0,0.0,,,2.3978952727983707,,2,,1.0,
7,21.0,easy,ECP,explanation,control,prediction,2,prediction,visible,3.0,b,3.0,b,,1,3,3,3,1.0,928.4340000000084,2023-07-26 19:22:33.049000+00:00,22,0.0,1.0,,,2.3978952727983707,,3,,1.0,
7,21.0,easy,ECP,explanation,control,prediction,3,prediction,visible,1.0,b,0.0,b,,2,1,2,2,1.0,2569.240999994043,2023-07-26 19:22:39.157000+00:00,23,0.999,0.0,,,2.39698576841553,,2,,1.0,
7,21.0,easy,ECP,explanation,control,prediction,4,prediction,visible,2.0,a,3.0,a,,3,1,1,3,0.0,1200.4529999940423,2023-07-26 19:22:43.855000+00:00,24,0.0,0.75,,,2.1400661634962708,,1,,0.0,
7,21.0,easy,ECP,explanation,control,prediction,5,prediction,visible,3.0,a,1.0,a,,0,1,0,0,1.0,2911.746999999974,2023-07-26 19:22:50.270000+00:00,25,0.999,0.0,,,2.39698576841553,,0,,1.0,
7,21.0,easy,ECP,explanation,control,prediction,1,prediction,hidden,2.0,a,,b,,0,3,3,3,1.0,3500.384999994014,2023-07-26 19:22:57.290000+00:00,26,0.0,0.4,0.0,0.0,1.6094379124341005,0.0,3,,1.0,
7,21.0,easy,ECP,explanation,control,prediction,2,prediction,hidden,3.0,a,,b,,2,1,2,1,0.0,5254.920999999973,2023-07-26 19:23:05.562000+00:00,27,0.25,0.0,0.0,0.0,1.2527629684953678,0.0,2,,0.0,
7,21.0,easy,ECP,explanation,control,prediction,3,prediction,hidden,2.0,b,,a,,1,3,3,1,0.0,6641.52199999406,2023-07-26 19:23:15.232000+00:00,28,0.0,0.4,0.0,0.4,1.6094379124341005,1.6094379124341005,3,3,0.0,0.0
7,21.0,easy,ECP,explanation,control,prediction,4,prediction,hidden,2.0,a,,a,,3,1,1,1,1.0,2481.360999999976,2023-07-26 19:23:20.708000+00:00,29,0.0,0.3,0.0,0.0,1.3862943611198906,0.0,1,,1.0,
7,21.0,easy,ECP,explanation,control,prediction,5,prediction,hidden,0.0,a,,a,,1,0,0,0,1.0,1934.776999994065,2023-07-26 19:23:25.661000+00:00,30,0.0,0.6,0.0,0.6,1.9459101490553128,1.9459101490553128,0,0,1.0,1.0
9,21.0,easy,EPC,explanation,prediction,control,1,explanation,visible,0.0,a,2.0,a,0.0,,,2,2,1.0,11609.232000000367,2023-07-26 19:26:16.806000+00:00,1,0.538,0.0,,,1.8531680973566984,,2,,1.0,
9,21.0,easy,EPC,explanation,prediction,control,2,explanation,visible,0.0,b,2.0,a,0.0,,,2,2,1.0,2566.623999999836,2023-07-26 19:26:22.398000+00:00,2,0.538,0.0,,,1.8531680973566984,,2,,1.0,
9,21.0,easy,EPC,explanation,prediction,control,3,explanation,visible,2.0,a,0.0,a,2.0,,,1,2,0.0,5345.76300000021,2023-07-26 19:26:30.761000+00:00,3,0.0,0.538,,,1.8531680973566984,,1,,0.0,
9,21.0,easy,EPC,explanation,prediction,control,4,explanation,visible,2.0,a,0.0,b,2.0,,,1,2,0.0,1405.1389999996172,2023-07-26 19:26:35.188000+00:00,4,0.0,0.538,,,1.8531680973566984,,1,,0.0,
9,21.0,easy,EPC,explanation,prediction,control,5,explanation,visible,3.0,a,0.0,a,2.0,,,1,1,1.0,5852.900999999605,2023-07-26 19:26:44.069000+00:00,5,0.0,0.333,,,1.4655675420143983,,1,,1.0,
9,21.0,easy,EPC,explanation,prediction,control,1,explanation,hidden,0.0,b,,b,2.0,,,2,2,1.0,9925.41800000018,2023-07-26 19:26:57.160000+00:00,6,1.0,0.0,1.0,0.0,2.3978952727983707,2.3978952727983707,2,2,1.0,1.0
9,21.0,easy,EPC,explanation,prediction,control,2,explanation,hidden,3.0,a,,b,2.0,,,1,2,0.0,2893.86400000035,2023-07-26 19:27:03.063000+00:00,7,0.001,0.333,0.0,0.0,1.4556172111612304,0.0,1,,0.0,
9,21.0,easy,EPC,explanation,prediction,control,3,explanation,hidden,3.0,a,,a,2.0,,,1,1,1.0,4815.81899999961,2023-07-26 19:27:10.902000+00:00,8,0.0,0.334,0.0,0.001,1.4678743481123135,0.009950330853168,1,1,1.0,1.0
9,21.0,easy,EPC,explanation,prediction,control,4,explanation,hidden,3.0,a,,b,0.0,,,1,1,1.0,5122.337999999814,2023-07-26 19:27:19.042000+00:00,9,0.0,0.666,0.0,0.999,2.0360119837525,2.39698576841553,1,1,1.0,1.0
9,21.0,easy,EPC,explanation,prediction,control,5,explanation,hidden,0.0,b,,a,0.0,,,2,2,1.0,4020.372000000381,2023-07-26 19:27:26.075000+00:00,10,0.538,0.0,0.538,0.0,1.8531680973566984,1.8531680973566984,2,2,1.0,1.0
9,21.0,easy,EPC,explanation,prediction,control,1,prediction,visible,0.0,b,2.0,b,,2,3,2,2,1.0,2117.154999999795,2023-07-26 19:28:21.577000+00:00,11,1.0,0.0,,,2.3978952727983707,,2,,1.0,
9,21.0,easy,EPC,explanation,prediction,control,2,prediction,visible,3.0,a,1.0,a,,0,1,0,0,1.0,2813.4390000003623,2023-07-26 19:28:27.907000+00:00,12,0.999,0.0,,,2.39698576841553,,0,,1.0,
9,21.0,easy,EPC,explanation,prediction,control,3,prediction,visible,3.0,b,3.0,a,,1,3,1,1,1.0,6562.259000000195,2023-07-26 19:28:37.990000+00:00,13,0.666,0.0,,,2.0360119837525,,1,,1.0,
9,21.0,easy,EPC,explanation,prediction,control,4,prediction,visible,3.0,b,3.0,b,,1,3,3,3,1.0,8321.925000000163,2023-07-26 19:28:49.834000+00:00,14,0.0,0.999,,,2.39698576841553,,3,,1.0,
9,21.0,easy,EPC,explanation,prediction,control,5,prediction,visible,2.0,a,3.0,a,,3,1,1,1,1.0,4095.239999999758,2023-07-26 19:28:57.442000+00:00,15,0.0,0.666,,,2.0360119837525,,1,,1.0,
9,21.0,easy,EPC,explanation,prediction,control,1,prediction,hidden,2.0,a,,b,,1,3,3,3,1.0,5872.443000000203,2023-07-26 19:29:06.837000+00:00,16,0.0,0.461,0.0,0.0,1.724550719534605,0.0,3,,1.0,
9,21.0,easy,EPC,explanation,prediction,control,2,prediction,hidden,1.0,b,,a,,2,1,2,1,0.0,3388.721999999834,2023-07-26 19:29:13.237000+00:00,17,0.997,0.001,1.0,0.0,2.3852139434339708,2.3978952727983707,2,2,0.0,0.0
9,21.0,easy,EPC,explanation,prediction,control,3,prediction,hidden,0.0,a,,a,,1,0,0,1,0.0,5620.387999999803,2023-07-26 19:29:21.870000+00:00,18,0.0,0.539,0.0,0.539,1.8547342683894437,1.8547342683894437,0,0,0.0,0.0
9,21.0,easy,EPC,explanation,prediction,control,4,prediction,hidden,0.0,b,,a,,3,0,0,0,1.0,4626.544999999576,2023-07-26 19:29:29.510000+00:00,19,0.461,0.538,0.461,0.539,0.1286173778220934,0.1301835488548384,0,0,1.0,1.0
9,21.0,easy,EPC,explanation,prediction,control,5,prediction,hidden,3.0,a,,b,,2,1,2,2,1.0,7374.20100000035,2023-07-26 19:29:39.892000+00:00,20,0.334,0.001,0.001,0.001,1.4579240172591454,0.0,2,,1.0,
9,21.0,easy,EPC,explanation,prediction,control,1,control,visible,0.0,b,2.0,,2.0,a,b,b,b,1.0,955.4990000001852,2023-07-26 19:30:18.427000+00:00,21,0.0,1.0,,,2.3978952727983707,,b,,1.0,
9,21.0,easy,EPC,explanation,prediction,control,2,control,visible,2.0,a,3.0,,3.0,a,b,b,b,1.0,4922.135000000009,2023-07-26 19:30:26.862000+00:00,22,0.0,0.999,,,2.39698576841553,,b,,1.0,
9,21.0,easy,EPC,explanation,prediction,control,3,control,visible,3.0,b,3.0,,3.0,a,b,b,b,1.0,2209.131000000169,2023-07-26 19:30:32.583000+00:00,23,0.0,0.999,,,2.39698576841553,,b,,1.0,
9,21.0,easy,EPC,explanation,prediction,control,4,control,visible,2.0,b,2.0,,2.0,a,b,b,b,1.0,3181.922000000137,2023-07-26 19:30:39.273000+00:00,24,0.0,1.0,,,2.3978952727983707,,b,,1.0,
9,21.0,easy,EPC,explanation,prediction,control,5,control,visible,0.0,a,2.0,,3.0,a,b,a,b,0.0,8712.907000000356,2023-07-26 19:30:51.504000+00:00,25,0.461,0.0,,,1.724550719534605,,a,,0.0,
9,21.0,easy,EPC,explanation,prediction,control,1,control,hidden,2.0,,,,3.0,aa,ab,ab,aa,0.0,6964.470999999787,2023-07-26 19:31:02.191000+00:00,26,0.0,0.461,0.0,0.0,1.724550719534605,0.0,ab,,0.0,
9,21.0,easy,EPC,explanation,prediction,control,2,control,hidden,3.0,,,,2.0,ab,ba,ab,ab,1.0,5307.45100000035,2023-07-26 19:31:10.518000+00:00,27,0.334,0.0,0.001,0.0,1.4678743481123135,0.009950330853168,ab,ab,1.0,1.0
9,21.0,easy,EPC,explanation,prediction,control,3,control,hidden,2.0,,,,1.0,ab,aa,aa,aa,1.0,2517.4440000000177,2023-07-26 19:31:16.045000+00:00,28,0.0,0.308,0.0,0.0,1.4060969884160703,0.0,aa,,1.0,
9,21.0,easy,EPC,explanation,prediction,control,4,control,hidden,0.0,,,,3.0,ab,aa,aa,ab,0.0,7239.072000000393,2023-07-26 19:31:26.301000+00:00,29,0.0,0.461,0.0,0.461,1.724550719534605,1.724550719534605,aa,aa,0.0,0.0
9,21.0,easy,EPC,explanation,prediction,control,5,control,hidden,3.0,,,,2.0,aa,bb,aa,bb,0.0,2428.7159999996657,2023-07-26 19:31:31.741000+00:00,30,0.333,0.001,0.0,0.0,1.4556172111612304,0.0,aa,,0.0,
13,21.0,easy,PEC,prediction,explanation,control,1,prediction,visible,1.0,a,0.0,a,,2,0,2,2,1.0,2797.7330000000075,2023-07-26 19:28:44.666000+00:00,1,1.0,0.0,,,2.3978952727983707,,2,,1.0,
13,21.0,easy,PEC,prediction,explanation,control,2,prediction,visible,2.0,a,3.0,a,,0,3,0,3,0.0,9707.986000000034,2023-07-26 19:28:57.901000+00:00,2,0.333,0.0,,,1.4655675420143983,,0,,0.0,
13,21.0,easy,PEC,prediction,explanation,control,3,prediction,visible,0.0,b,2.0,b,,2,3,2,2,1.0,4086.515000000014,2023-07-26 19:29:05.504000+00:00,3,1.0,0.0,,,2.3978952727983707,,2,,1.0,
13,21.0,easy,PEC,prediction,explanation,control,4,prediction,visible,3.0,a,1.0,b,,3,0,0,0,1.0,5299.685999999987,2023-07-26 19:29:14.325000+00:00,4,0.0,0.999,,,2.39698576841553,,0,,1.0,
13,21.0,easy,PEC,prediction,explanation,control,5,prediction,visible,3.0,a,1.0,a,,0,1,0,0,1.0,3158.47199999995,2023-07-26 19:29:21+00:00,5,0.999,0.0,,,2.39698576841553,,0,,1.0,
13,21.0,easy,PEC,prediction,explanation,control,1,prediction,hidden,2.0,a,,a,,3,1,1,3,0.0,14502.279000000097,2023-07-26 19:29:39.185000+00:00,6,0.0,0.267,0.0,0.0,1.3001916620664788,0.0,1,,0.0,
13,21.0,easy,PEC,prediction,explanation,control,2,prediction,hidden,2.0,b,,a,,1,3,3,1,0.0,4738.91399999999,2023-07-26 19:29:46.962000+00:00,7,0.0,0.4,0.0,0.4,1.6094379124341005,1.6094379124341005,3,3,0.0,0.0
13,21.0,easy,PEC,prediction,explanation,control,3,prediction,hidden,0.0,b,,a,,3,0,0,3,0.0,8584.625,2023-07-26 19:29:58.584000+00:00,8,0.4,0.6,0.4,0.6,0.3364722366212129,0.3364722366212129,0,0,0.0,0.0
13,21.0,easy,PEC,prediction,explanation,control,4,prediction,hidden,3.0,a,,a,,2,1,2,2,1.0,3698.2889999999898,2023-07-26 19:30:05.296000+00:00,9,0.333,0.0,0.0,0.0,1.4655675420143983,0.0,2,,1.0,
13,21.0,easy,PEC,prediction,explanation,control,5,prediction,hidden,2.0,a,,b,,1,3,3,3,1.0,5772.557999999961,2023-07-26 19:30:14.095000+00:00,10,0.0,0.4,0.0,0.0,1.6094379124341005,0.0,3,,1.0,
13,21.0,easy,PEC,prediction,explanation,control,1,explanation,visible,0.0,a,2.0,a,0.0,,,2,1,0.0,4145.694000000018,2023-07-26 19:30:54.199000+00:00,11,0.599,0.0,,,1.9444805562457188,,2,,0.0,
13,21.0,easy,PEC,prediction,explanation,control,2,explanation,visible,0.0,a,2.0,b,2.0,,,2,1,0.0,8974.748000000021,2023-07-26 19:31:06.212000+00:00,12,0.999,0.0,,,2.39698576841553,,2,,0.0,
13,21.0,easy,PEC,prediction,explanation,control,3,explanation,visible,3.0,a,1.0,a,0.0,,,1,2,0.0,3111.228000000003,2023-07-26 19:31:12.347000+00:00,13,0.0,0.665,,,2.0347056478384444,,1,,0.0,
13,21.0,easy,PEC,prediction,explanation,control,4,explanation,visible,0.0,b,2.0,a,3.0,,,2,2,1.0,4207.040000000037,2023-07-26 19:31:19.577000+00:00,14,0.4,0.0,,,1.6094379124341005,,2,,1.0,
13,21.0,easy,PEC,prediction,explanation,control,5,explanation,visible,0.0,b,2.0,a,0.0,,,2,2,1.0,8402.195999999996,2023-07-26 19:31:31.005000+00:00,15,0.6,0.0,,,1.9459101490553128,,2,,1.0,
13,21.0,easy,PEC,prediction,explanation,control,1,explanation,hidden,0.0,a,,a,3.0,,,2,1,0.0,15030.787000000128,2023-07-26 19:31:49.073000+00:00,16,0.4,0.0,0.4,0.0,1.6094379124341005,1.6094379124341005,2,2,0.0,0.0
13,21.0,easy,PEC,prediction,explanation,control,2,explanation,hidden,3.0,a,,b,2.0,,,1,2,0.0,2986.976000000024,2023-07-26 19:31:55.088000+00:00,17,0.0,0.334,0.0,0.0,1.4678743481123135,0.0,1,,0.0,
13,21.0,easy,PEC,prediction,explanation,control,3,explanation,hidden,3.0,a,,a,2.0,,,1,1,1.0,4005.5830000001006,2023-07-26 19:32:02.115000+00:00,18,0.0,0.334,0.0,0.0,1.4678743481123135,0.0,1,,1.0,
13,21.0,easy,PEC,prediction,explanation,control,4,explanation,hidden,0.0,b,,a,0.0,,,2,2,1.0,3666.731000000029,2023-07-26 19:32:08.809000+00:00,19,0.6,0.0,0.6,0.0,1.9459101490553128,1.9459101490553128,2,2,1.0,1.0
13,21.0,easy,PEC,prediction,explanation,control,5,explanation,hidden,0.0,b,,b,2.0,,,2,1,0.0,11491.465000000084,2023-07-26 19:32:23.317000+00:00,20,1.0,0.0,1.0,0.0,2.3978952727983707,2.3978952727983707,2,2,0.0,0.0
13,21.0,easy,PEC,prediction,explanation,control,1,control,visible,3.0,b,3.0,,0.0,a,b,a,a,1.0,3647.386000000057,2023-07-26 19:32:45.164000+00:00,21,0.333,0.0,,,1.4655675420143983,,a,,1.0,
13,21.0,easy,PEC,prediction,explanation,control,2,control,visible,2.0,a,3.0,,3.0,a,b,b,b,1.0,2454.640000000014,2023-07-26 19:32:51.153000+00:00,22,0.0,1.0,,,2.3978952727983707,,b,,1.0,
13,21.0,easy,PEC,prediction,explanation,control,3,control,visible,2.0,b,2.0,,2.0,a,b,b,b,1.0,1604.2789999999804,2023-07-26 19:32:56.278000+00:00,23,0.0,1.0,,,2.3978952727983707,,b,,1.0,
13,21.0,easy,PEC,prediction,explanation,control,4,control,visible,3.0,b,3.0,,3.0,a,b,b,b,1.0,2999.051000000094,2023-07-26 19:33:02.806000+00:00,24,0.0,1.0,,,2.3978952727983707,,b,,1.0,
13,21.0,easy,PEC,prediction,explanation,control,5,control,visible,0.0,a,2.0,,0.0,a,b,a,a,1.0,5384.744999999995,2023-07-26 19:33:11.707000+00:00,25,0.6,0.0,,,1.9459101490553128,,a,,1.0,
13,21.0,easy,PEC,prediction,explanation,control,1,control,hidden,3.0,,,,2.0,ab,ba,ab,ba,0.0,15761.341000000017,2023-07-26 19:33:31.151000+00:00,26,0.334,0.0,0.0,0.0,1.4678743481123135,0.0,ab,,0.0,
13,21.0,easy,PEC,prediction,explanation,control,2,control,hidden,0.0,,,,2.0,aa,bb,bb,aa,0.0,7148.726000000024,2023-07-26 19:33:41.330000+00:00,27,0.0,0.999,0.0,1.0,2.39698576841553,2.3978952727983707,bb,bb,0.0,0.0
13,21.0,easy,PEC,prediction,explanation,control,3,control,hidden,2.0,,,,2.0,aa,bb,bb,bb,1.0,5151.966000000015,2023-07-26 19:33:49.498000+00:00,28,0.6,1.0,1.0,1.0,0.4519851237430574,0.0,bb,,1.0,
13,21.0,easy,PEC,prediction,explanation,control,4,control,hidden,2.0,,,,3.0,aa,ab,ab,ab,1.0,7773.39300000004,2023-07-26 19:34:00.296000+00:00,29,0.0,0.4,0.0,0.0,1.6094379124341005,0.0,ab,,1.0,
13,21.0,easy,PEC,prediction,explanation,control,5,control,hidden,3.0,,,,1.0,aa,ba,ba,ba,1.0,7343.525000000023,2023-07-26 19:34:10.665000+00:00,30,0.0,0.666,0.0,0.666,2.0360119837525,2.0360119837525,ba,ba,1.0,1.0
11,21.0,easy,CEP,control,explanation,prediction,1,control,visible,2.0,a,3.0,,3.0,a,b,b,a,0.0,2405.1200000476674,2023-07-26 19:29:30.825000+00:00,1,0.0,0.997,,,2.395164274287138,,b,,0.0,
11,21.0,easy,CEP,control,explanation,prediction,2,control,visible,0.0,a,2.0,,3.0,a,b,a,a,1.0,2096.6480000476586,2023-07-26 19:29:36.460000+00:00,2,0.412,0.0,,,1.6331544390514163,,a,,1.0,
11,21.0,easy,CEP,control,explanation,prediction,3,control,visible,2.0,a,3.0,,1.0,a,b,a,a,1.0,735.3719999999739,2023-07-26 19:29:40.709000+00:00,3,0.571,0.001,,,1.893648620130422,,a,,1.0,
11,21.0,easy,CEP,control,explanation,prediction,4,control,visible,0.0,b,2.0,,2.0,a,b,b,b,1.0,1686.8560000000289,2023-07-26 19:29:45.924000+00:00,4,0.0,1.0,,,2.3978952727983707,,b,,1.0,
11,21.0,easy,CEP,control,explanation,prediction,5,control,visible,3.0,b,3.0,,0.0,a,b,a,a,1.0,922.1899999523304,2023-07-26 19:29:50.354000+00:00,5,0.428,0.001,,,1.653975766865002,,a,,1.0,
11,21.0,easy,CEP,control,explanation,prediction,1,control,hidden,3.0,,,,2.0,aa,bb,aa,bb,0.0,7081.943999856943,2023-07-26 19:30:01.293000+00:00,6,0.429,0.003,0.0,0.001,1.6362594436286635,0.009950330853168,aa,bb,0.0,1.0
11,21.0,easy,CEP,control,explanation,prediction,2,control,hidden,0.0,,,,3.0,ab,aa,aa,aa,1.0,3538.3580000000075,2023-07-26 19:30:07.872000+00:00,7,0.0,0.412,0.0,0.412,1.6331544390514163,1.6331544390514163,aa,aa,1.0,1.0
11,21.0,easy,CEP,control,explanation,prediction,3,control,hidden,3.0,,,,2.0,ab,ba,ab,ab,1.0,4118.319999904605,2023-07-26 19:30:14.996000+00:00,8,0.429,0.001,0.0,0.0,1.65586791501704,0.0,ab,,1.0,
11,21.0,easy,CEP,control,explanation,prediction,4,control,hidden,2.0,,,,2.0,aa,bb,bb,bb,1.0,3906.891999999993,2023-07-26 19:30:21.911000+00:00,9,0.588,1.0,1.0,1.0,0.4692766208531184,0.0,bb,,1.0,
11,21.0,easy,CEP,control,explanation,prediction,5,control,hidden,2.0,,,,1.0,ab,aa,aa,aa,1.0,2698.4470000476576,2023-07-26 19:30:27.629000+00:00,10,0.001,0.235,0.0,0.0,1.1990100149838068,0.0,aa,,1.0,
11,21.0,easy,CEP,control,explanation,prediction,1,explanation,visible,3.0,a,0.0,a,2.0,,,1,2,0.0,8392.494999952323,2023-07-26 19:31:09.603000+00:00,11,0.001,0.428,,,1.653975766865002,,1,,0.0,
11,21.0,easy,CEP,control,explanation,prediction,2,explanation,visible,3.0,a,1.0,b,0.0,,,1,1,1.0,1814.6990000476944,2023-07-26 19:31:14.448000+00:00,12,0.001,0.57,,,1.892157195543752,,1,,1.0,
11,21.0,easy,CEP,control,explanation,prediction,3,explanation,visible,2.0,a,0.0,b,2.0,,,1,2,0.0,1324.0869999999995,2023-07-26 19:31:18.819000+00:00,13,0.0,0.588,,,1.928618651945252,,1,,0.0,
11,21.0,easy,CEP,control,explanation,prediction,4,explanation,visible,0.0,b,2.0,a,3.0,,,2,1,0.0,1563.936999904632,2023-07-26 19:31:23.406000+00:00,14,0.412,0.0,,,1.6331544390514163,,2,,0.0,
11,21.0,easy,CEP,control,explanation,prediction,5,explanation,visible,0.0,a,2.0,b,2.0,,,2,2,1.0,1803.9030000476632,2023-07-26 19:31:28.258000+00:00,15,0.999,0.0,,,2.39698576841553,,2,,1.0,
11,21.0,easy,CEP,control,explanation,prediction,1,explanation,hidden,0.0,b,,b,2.0,,,2,2,1.0,2685.221999952337,2023-07-26 19:31:33.985000+00:00,16,1.0,0.0,1.0,0.0,2.3978952727983707,2.3978952727983707,2,2,1.0,1.0
11,21.0,easy,CEP,control,explanation,prediction,2,explanation,hidden,3.0,a,,b,2.0,,,1,2,0.0,858.7470000477042,2023-07-26 19:31:37.902000+00:00,17,0.003,0.429,0.001,0.0,1.6362594436286635,0.009950330853168,1,2,0.0,1.0
11,21.0,easy,CEP,control,explanation,prediction,3,explanation,hidden,3.0,b,,a,0.0,,,2,2,1.0,2066.600999952294,2023-07-26 19:31:43.007000+00:00,18,0.571,0.002,0.999,0.001,1.8837963236874105,2.387035437562362,2,2,1.0,1.0
11,21.0,easy,CEP,control,explanation,prediction,4,explanation,hidden,0.0,b,,a,0.0,,,2,2,1.0,2907.353999999992,2023-07-26 19:31:48.942000+00:00,19,0.588,0.0,0.588,0.0,1.928618651945252,1.928618651945252,2,2,1.0,1.0
11,21.0,easy,CEP,control,explanation,prediction,5,explanation,hidden,0.0,a,,a,3.0,,,2,2,1.0,780.1949999046046,2023-07-26 19:31:52.759000+00:00,20,0.411,0.0,0.412,0.0,1.631199404215613,1.6331544390514163,2,2,1.0,1.0
11,21.0,easy,CEP,control,explanation,prediction,1,prediction,visible,3.0,b,3.0,a,,1,3,1,1,1.0,3419.613999856927,2023-07-26 19:32:18.976000+00:00,21,0.571,0.0,,,1.9035989509835904,,1,,1.0,
11,21.0,easy,CEP,control,explanation,prediction,2,prediction,visible,2.0,a,3.0,a,,0,3,0,0,1.0,1592.99099999998,2023-07-26 19:32:24.092000+00:00,22,0.428,0.0,,,1.6639260977181702,,0,,1.0,
11,21.0,easy,CEP,control,explanation,prediction,3,prediction,visible,2.0,b,2.0,a,,1,3,3,3,1.0,2832.015999952331,2023-07-26 19:32:30.459000+00:00,23,0.0,0.412,,,1.6331544390514163,,3,,1.0,
11,21.0,easy,CEP,control,explanation,prediction,4,prediction,visible,3.0,b,3.0,b,,1,3,3,1,0.0,4129.893999999971,2023-07-26 19:32:38.101000+00:00,24,0.001,0.997,,,2.3852139434339708,,3,,0.0,
11,21.0,easy,CEP,control,explanation,prediction,5,prediction,visible,1.0,a,0.0,a,,2,0,2,2,1.0,5425.577000047662,2023-07-26 19:32:47.039000+00:00,25,1.0,0.0,,,2.3978952727983707,,2,,1.0,
11,21.0,easy,CEP,control,explanation,prediction,1,prediction,hidden,0.0,b,,a,,3,0,0,0,1.0,2273.3079998569447,2023-07-26 19:32:52.845000+00:00,26,0.411,0.588,0.412,0.588,0.297419247729639,0.2954642128938357,0,0,1.0,1.0
11,21.0,easy,CEP,control,explanation,prediction,2,prediction,hidden,2.0,a,,b,,1,3,3,1,0.0,5105.336999952328,2023-07-26 19:33:00.988000+00:00,27,0.001,0.411,0.0,0.0,1.621249073362445,0.0,3,,0.0,
11,21.0,easy,CEP,control,explanation,prediction,3,prediction,hidden,3.0,b,,a,,3,1,1,1,1.0,1716.734999904642,2023-07-26 19:33:05.725000+00:00,28,0.001,0.569,0.0,0.571,1.8906635432869687,1.9035989509835904,1,1,1.0,1.0
11,21.0,easy,CEP,control,explanation,prediction,4,prediction,hidden,3.0,a,,a,,2,1,2,2,1.0,2001.420999999973,2023-07-26 19:33:10.738000+00:00,29,0.429,0.0,0.0,0.0,1.665818245870208,0.0,2,,1.0,
11,21.0,easy,CEP,control,explanation,prediction,5,prediction,hidden,3.0,a,,b,,2,1,2,2,1.0,2844.7790000477107,2023-07-26 19:33:16.594000+00:00,30,0.428,0.0,0.0,0.0,1.6639260977181702,0.0,2,,1.0,
10,21.0,easy,PCE,prediction,control,explanation,1,prediction,visible,0.0,b,2.0,b,,2,3,2,2,1.0,6489.305000011926,2023-07-26 19:30:25.190000+00:00,1,1.0,0.0,,,2.3978952727983707,,2,,1.0,
10,21.0,easy,PCE,prediction,control,explanation,2,prediction,visible,2.0,a,3.0,a,,0,3,0,0,1.0,3204.9749999881024,2023-07-26 19:30:31.923000+00:00,2,0.5,0.0,,,1.791759469228055,,0,,1.0,
10,21.0,easy,PCE,prediction,control,explanation,3,prediction,visible,3.0,a,1.0,a,,0,1,0,0,1.0,2022.1770000118995,2023-07-26 19:30:37.457000+00:00,3,0.999,0.0,,,2.39698576841553,,0,,1.0,
10,21.0,easy,PCE,prediction,control,explanation,4,prediction,visible,3.0,b,3.0,b,,1,3,3,3,1.0,1205.0499999761814,2023-07-26 19:30:42.173000+00:00,4,0.0,1.0,,,2.3978952727983707,,3,,1.0,
10,21.0,easy,PCE,prediction,control,explanation,5,prediction,visible,3.0,b,3.0,a,,1,3,1,1,1.0,2022.1720000000205,2023-07-26 19:30:47.707000+00:00,5,0.5,0.0,,,1.791759469228055,,1,,1.0,
10,21.0,easy,PCE,prediction,control,explanation,1,prediction,hidden,0.0,b,,a,,3,0,0,0,1.0,15255.192000011912,2023-07-26 19:31:06.640000+00:00,6,0.428,0.571,0.428,0.571,0.2396728532654202,0.2396728532654202,0,0,1.0,1.0
10,21.0,easy,PCE,prediction,control,explanation,2,prediction,hidden,2.0,a,,b,,0,3,3,3,1.0,6655.5899999761605,2023-07-26 19:31:16.322000+00:00,7,0.0,0.428,0.0,0.0,1.66392609771817,0.0,3,,1.0,
10,21.0,easy,PCE,prediction,control,explanation,3,prediction,hidden,3.0,a,,b,,2,1,2,2,1.0,4072.16799997614,2023-07-26 19:31:23.407000+00:00,8,0.5,0.0,1.0,0.0,1.791759469228055,2.3978952727983707,2,2,1.0,1.0
10,21.0,easy,PCE,prediction,control,explanation,4,prediction,hidden,0.0,a,,a,,1,0,0,1,0.0,6055.146999976132,2023-07-26 19:31:32.473000+00:00,9,0.0,0.571,0.0,0.571,1.9035989509835904,1.9035989509835904,0,0,0.0,0.0
10,21.0,easy,PCE,prediction,control,explanation,5,prediction,hidden,2.0,a,,b,,1,3,3,3,1.0,3572.2430000119493,2023-07-26 19:31:39.057000+00:00,10,0.0,0.428,0.0,0.0,1.66392609771817,0.0,3,,1.0,
10,21.0,easy,PCE,prediction,control,explanation,1,control,visible,0.0,a,2.0,,0.0,a,b,a,a,1.0,3071.805999976176,2023-07-26 19:31:58.889000+00:00,11,0.571,0.0,,,1.9035989509835904,,a,,1.0,
10,21.0,easy,PCE,prediction,control,explanation,2,control,visible,0.0,b,2.0,,3.0,a,b,a,a,1.0,2054.947999964236,2023-07-26 19:32:04.474000+00:00,12,0.429,0.0,,,1.665818245870208,,a,,1.0,
10,21.0,easy,PCE,prediction,control,explanation,3,control,visible,2.0,a,3.0,,1.0,a,b,a,a,1.0,738.6039999880595,2023-07-26 19:32:08.723000+00:00,13,0.5,0.0,,,1.791759469228055,,a,,1.0,
10,21.0,easy,PCE,prediction,control,explanation,4,control,visible,3.0,b,3.0,,0.0,a,b,a,a,1.0,688.3029999761493,2023-07-26 19:32:12.924000+00:00,14,0.5,0.0,,,1.791759469228055,,a,,1.0,
10,21.0,easy,PCE,prediction,control,explanation,5,control,visible,3.0,b,3.0,,3.0,a,b,b,b,1.0,788.5709999999963,2023-07-26 19:32:17.223000+00:00,15,0.0,1.0,,,2.3978952727983707,,b,,1.0,
10,21.0,easy,PCE,prediction,control,explanation,1,control,hidden,2.0,,,,3.0,aa,ab,ab,ab,1.0,6822.348999964248,2023-07-26 19:32:27.707000+00:00,16,0.0,0.428,0.0,0.0,1.66392609771817,0.0,ab,,1.0,
10,21.0,easy,PCE,prediction,control,explanation,2,control,hidden,3.0,,,,3.0,bb,ba,bb,bb,1.0,755.4380000000237,2023-07-26 19:32:31.491000+00:00,17,0.999,0.0,1.0,0.0,2.39698576841553,2.3978952727983707,bb,bb,1.0,1.0
10,21.0,easy,PCE,prediction,control,explanation,3,control,hidden,3.0,,,,1.0,aa,ba,ba,ba,1.0,13589.32199997618,2023-07-26 19:32:48.091000+00:00,18,0.0,0.5,0.0,0.5,1.791759469228055,1.791759469228055,ba,ba,1.0,1.0
10,21.0,easy,PCE,prediction,control,explanation,4,control,hidden,0.0,,,,2.0,aa,bb,bb,bb,1.0,2722.588999976171,2023-07-26 19:32:53.824000+00:00,19,0.0,0.999,0.0,1.0,2.39698576841553,2.3978952727983707,bb,bb,1.0,1.0
10,21.0,easy,PCE,prediction,control,explanation,5,control,hidden,2.0,,,,1.0,ab,aa,aa,aa,1.0,3956.385000011942,2023-07-26 19:33:00.791000+00:00,20,0.0,0.214,0.0,0.0,1.144222799920162,0.0,aa,,1.0,
10,21.0,easy,PCE,prediction,control,explanation,1,explanation,visible,2.0,a,0.0,a,2.0,,,1,2,0.0,4105.571999999986,2023-07-26 19:33:29.990000+00:00,21,0.0,0.571,,,1.9035989509835904,,1,,0.0,
10,21.0,easy,PCE,prediction,control,explanation,2,explanation,visible,0.0,b,2.0,a,0.0,,,2,2,1.0,3605.077999988105,2023-07-26 19:33:36.641000+00:00,22,0.571,0.0,,,1.9035989509835904,,2,,1.0,
10,21.0,easy,PCE,prediction,control,explanation,3,explanation,visible,3.0,a,0.0,a,2.0,,,1,2,0.0,4622.209999976156,2023-07-26 19:33:44.290000+00:00,23,0.0,0.5,,,1.791759469228055,,1,,0.0,
10,21.0,easy,PCE,prediction,control,explanation,4,explanation,visible,0.0,b,2.0,a,3.0,,,2,2,1.0,1888.7409999642405,2023-07-26 19:33:49.191000+00:00,24,0.428,0.0,,,1.6639260977181702,,2,,1.0,
10,21.0,easy,PCE,prediction,control,explanation,5,explanation,visible,3.0,a,1.0,b,0.0,,,1,1,1.0,4488.374999976135,2023-07-26 19:33:56.707000+00:00,25,0.0,0.499,,,1.790091412127358,,1,,1.0,
10,21.0,easy,PCE,prediction,control,explanation,1,explanation,hidden,0.0,a,,a,0.0,,,2,2,1.0,3355.4749999881024,2023-07-26 19:34:03.074000+00:00,26,0.571,0.0,0.571,0.0,1.9035989509835904,1.9035989509835904,2,2,1.0,1.0
10,21.0,easy,PCE,prediction,control,explanation,2,explanation,hidden,2.0,b,,b,2.0,,,2,1,0.0,1405.1509999642149,2023-07-26 19:34:07.507000+00:00,27,0.571,0.0,0.999,0.0,1.9035989509835904,2.39698576841553,2,2,0.0,0.0
10,21.0,easy,PCE,prediction,control,explanation,3,explanation,hidden,0.0,a,,a,3.0,,,2,2,1.0,722.060999999987,2023-07-26 19:34:11.240000+00:00,28,0.428,0.0,0.429,0.0,1.6639260977181702,1.665818245870208,2,2,1.0,1.0
10,21.0,easy,PCE,prediction,control,explanation,4,explanation,hidden,2.0,a,,a,2.0,,,1,1,1.0,1638.269999988086,2023-07-26 19:34:15.891000+00:00,29,0.0,0.571,0.0,0.999,1.9035989509835904,2.39698576841553,1,1,1.0,1.0
10,21.0,easy,PCE,prediction,control,explanation,5,explanation,hidden,0.0,b,,a,0.0,,,2,2,1.0,521.8559999642312,2023-07-26 19:34:19.424000+00:00,30,0.571,0.0,0.571,0.0,1.9035989509835904,1.9035989509835904,2,2,1.0,1.0
12,21.0,easy,ECP,explanation,control,prediction,1,explanation,visible,0.0,b,2.0,a,3.0,,,2,1,0.0,10268.105999998515,2023-07-26 19:32:15.644000+00:00,1,0.428,0.0,,,1.6639260977181702,,2,,0.0,
12,21.0,easy,ECP,explanation,control,prediction,2,explanation,visible,3.0,a,1.0,a,0.0,,,1,2,0.0,4441.11900000149,2023-07-26 19:32:23.136000+00:00,2,0.0,0.665,,,2.0347056478384444,,1,,0.0,
12,21.0,easy,ECP,explanation,control,prediction,3,explanation,visible,3.0,a,0.0,a,2.0,,,1,2,0.0,3498.512999998522,2023-07-26 19:32:29.680000+00:00,3,0.0,0.333,,,1.4655675420143983,,1,,0.0,
12,21.0,easy,ECP,explanation,control,prediction,4,explanation,visible,3.0,a,1.0,b,0.0,,,1,2,0.0,4543.97500000149,2023-07-26 19:32:37.264000+00:00,4,0.0,0.665,,,2.0347056478384444,,1,,0.0,
12,21.0,easy,ECP,explanation,control,prediction,5,explanation,visible,0.0,b,2.0,b,2.0,,,2,2,1.0,2253.817999998515,2023-07-26 19:32:42.555000+00:00,5,0.999,0.0,,,2.39698576841553,,2,,1.0,
12,21.0,easy,ECP,explanation,control,prediction,1,explanation,hidden,3.0,a,,b,0.0,,,1,2,0.0,4927.304000000004,2023-07-26 19:32:50.720000+00:00,6,0.0,0.666,0.0,0.999,2.0360119837525,2.39698576841553,1,1,0.0,0.0
12,21.0,easy,ECP,explanation,control,prediction,2,explanation,hidden,0.0,b,,a,0.0,,,2,2,1.0,8766.207000001508,2023-07-26 19:33:02.547000+00:00,7,0.571,0.0,0.571,0.0,1.9035989509835904,1.9035989509835904,2,2,1.0,1.0
12,21.0,easy,ECP,explanation,control,prediction,3,explanation,hidden,0.0,a,,a,3.0,,,2,1,0.0,721.380999999994,2023-07-26 19:33:06.305000+00:00,8,0.428,0.0,0.429,0.0,1.6639260977181702,1.665818245870208,2,2,0.0,0.0
12,21.0,easy,ECP,explanation,control,prediction,4,explanation,hidden,3.0,a,,a,2.0,,,1,2,0.0,4690.465000001481,2023-07-26 19:33:14.042000+00:00,9,0.0,0.334,0.0,0.0,1.4678743481123135,0.0,1,,0.0,
12,21.0,easy,ECP,explanation,control,prediction,5,explanation,hidden,2.0,b,,b,2.0,,,2,2,1.0,4193.100999995542,2023-07-26 19:33:21.276000+00:00,10,0.571,0.0,1.0,0.0,1.9035989509835904,2.3978952727983707,2,2,1.0,1.0
12,21.0,easy,ECP,explanation,control,prediction,1,control,visible,3.0,b,3.0,,0.0,a,b,a,a,1.0,5506.3369999955175,2023-07-26 19:33:47.005000+00:00,11,0.333,0.0,,,1.4655675420143983,,a,,1.0,
12,21.0,easy,ECP,explanation,control,prediction,2,control,visible,0.0,a,2.0,,0.0,a,b,a,a,1.0,3705.873999997042,2023-07-26 19:33:54.252000+00:00,12,0.571,0.0,,,1.9035989509835904,,a,,1.0,
12,21.0,easy,ECP,explanation,control,prediction,3,control,visible,0.0,b,2.0,,2.0,a,b,b,b,1.0,5583.041000001482,2023-07-26 19:34:03.358000+00:00,13,0.0,1.0,,,2.3978952727983707,,b,,1.0,
12,21.0,easy,ECP,explanation,control,prediction,4,control,visible,3.0,b,3.0,,3.0,a,b,b,b,1.0,2809.568000001484,2023-07-26 19:34:09.713000+00:00,14,0.0,1.0,,,2.3978952727983707,,b,,1.0,
12,21.0,easy,ECP,explanation,control,prediction,5,control,visible,0.0,a,2.0,,3.0,a,b,a,b,0.0,2677.0559999999823,2023-07-26 19:34:15.944000+00:00,15,0.429,0.0,,,1.665818245870208,,a,,0.0,
12,21.0,easy,ECP,explanation,control,prediction,1,control,hidden,2.0,,,,2.0,aa,bb,bb,bb,1.0,3672.690999997023,2023-07-26 19:34:23.609000+00:00,16,0.571,1.0,1.0,1.0,0.4942963218147803,0.0,bb,,1.0,
12,21.0,easy,ECP,explanation,control,prediction,2,control,hidden,2.0,,,,3.0,aa,ab,ab,ab,1.0,923.3929999985266,2023-07-26 19:34:27.578000+00:00,17,0.0,0.428,0.0,0.0,1.66392609771817,0.0,ab,,1.0,
12,21.0,easy,ECP,explanation,control,prediction,3,control,hidden,3.0,,,,1.0,aa,ba,ba,aa,0.0,1184.6809999955583,2023-07-26 19:34:31.796000+00:00,18,0.0,0.666,0.0,0.666,2.0360119837525,2.0360119837525,ba,ba,0.0,0.0
12,21.0,easy,ECP,explanation,control,prediction,4,control,hidden,0.0,,,,3.0,ab,aa,aa,ab,0.0,4314.216999998491,2023-07-26 19:34:39.146000+00:00,19,0.0,0.428,0.0,0.429,1.66392609771817,1.665818245870208,aa,aa,0.0,0.0
12,21.0,easy,ECP,explanation,control,prediction,5,control,hidden,3.0,,,,2.0,ab,ba,ab,ba,0.0,2865.035000001488,2023-07-26 19:34:45.052000+00:00,20,0.334,0.0,0.0,0.0,1.4678743481123135,0.0,ab,,0.0,
12,21.0,easy,ECP,explanation,control,prediction,1,prediction,visible,2.0,b,2.0,a,,1,3,3,3,1.0,2322.5100000000093,2023-07-26 19:35:02.631000+00:00,21,0.0,0.429,,,1.665818245870208,,3,,1.0,
12,21.0,easy,ECP,explanation,control,prediction,2,prediction,visible,1.0,b,0.0,b,,2,1,2,2,1.0,1989.2779999955087,2023-07-26 19:35:08.163000+00:00,22,1.0,0.0,,,2.3978952727983707,,2,,1.0,
12,21.0,easy,ECP,explanation,control,prediction,3,prediction,visible,3.0,a,1.0,b,,3,0,0,3,0.0,7908.771999995515,2023-07-26 19:35:19.618000+00:00,23,0.0,0.999,,,2.39698576841553,,0,,0.0,
12,21.0,easy,ECP,explanation,control,prediction,4,prediction,visible,3.0,b,3.0,a,,1,3,1,3,0.0,2016.6410000000035,2023-07-26 19:35:25.164000+00:00,24,0.666,0.0,,,2.0360119837525,,1,,0.0,
12,21.0,easy,ECP,explanation,control,prediction,5,prediction,visible,2.0,a,3.0,a,,0,3,0,3,0.0,1203.662999997032,2023-07-26 19:35:29.913000+00:00,25,0.333,0.0,,,1.4655675420143983,,0,,0.0,
12,21.0,easy,ECP,explanation,control,prediction,1,prediction,hidden,2.0,b,,a,,1,3,3,3,1.0,4687.406999997038,2023-07-26 19:35:38.162000+00:00,26,0.0,0.428,0.0,0.428,1.66392609771817,1.66392609771817,3,3,1.0,1.0
12,21.0,easy,ECP,explanation,control,prediction,2,prediction,hidden,2.0,a,,a,,3,1,1,3,0.0,2488.102999995521,2023-07-26 19:35:43.702000+00:00,27,0.0,0.286,0.0,0.0,1.3506671834767394,0.0,1,,0.0,
12,21.0,easy,ECP,explanation,control,prediction,3,prediction,hidden,0.0,b,,a,,3,0,0,0,1.0,2141.6569999955245,2023-07-26 19:35:48.868000+00:00,28,0.428,0.571,0.428,0.571,0.2396728532654202,0.2396728532654202,0,0,1.0,1.0
12,21.0,easy,ECP,explanation,control,prediction,4,prediction,hidden,1.0,b,,a,,2,1,2,2,1.0,1741.1079999970389,2023-07-26 19:35:53.649000+00:00,29,0.998,0.0,1.0,0.0,2.3960754360813845,2.3978952727983707,2,2,1.0,1.0
12,21.0,easy,ECP,explanation,control,prediction,5,prediction,hidden,3.0,a,,a,,2,1,2,1,0.0,6179.465999997046,2023-07-26 19:36:02.874000+00:00,30,0.333,0.0,0.0,0.0,1.4655675420143983,0.0,2,,0.0,
14,21.0,easy,CPE,control,prediction,explanation,1,control,visible,2.0,b,2.0,,2.0,a,b,b,a,0.0,3711.118000095361,2023-07-26 19:37:38.569000+00:00,1,0.0,1.0,,,2.3978952727983707,,b,,0.0,
14,21.0,easy,CPE,control,prediction,explanation,2,control,visible,2.0,a,3.0,,3.0,a,b,b,b,1.0,7223.612000047695,2023-07-26 19:37:49.300000+00:00,2,0.0,0.999,,,2.39698576841553,,b,,1.0,
14,21.0,easy,CPE,control,prediction,explanation,3,control,visible,0.0,a,2.0,,0.0,a,b,a,a,1.0,3699.0400001907256,2023-07-26 19:37:56.522000+00:00,3,0.588,0.0,,,1.928618651945252,,a,,1.0,
14,21.0,easy,CPE,control,prediction,explanation,4,control,visible,0.0,b,2.0,,3.0,a,b,a,a,1.0,1396.1550000477,2023-07-26 19:38:01.432000+00:00,4,0.412,0.0,,,1.6331544390514163,,a,,1.0,
14,21.0,easy,CPE,control,prediction,explanation,5,control,visible,2.0,a,3.0,,1.0,a,b,a,b,0.0,1179.3500001907232,2023-07-26 19:38:06.167000+00:00,5,0.625,0.0,,,1.9810014688665836,,a,,0.0,
14,21.0,easy,CPE,control,prediction,explanation,1,control,hidden,0.0,,,,3.0,ab,aa,aa,aa,1.0,9904.143000095384,2023-07-26 19:38:20.139000+00:00,6,0.0,0.412,0.0,0.412,1.6331544390514163,1.6331544390514163,aa,aa,1.0,1.0
14,21.0,easy,CPE,control,prediction,explanation,2,control,hidden,3.0,,,,3.0,bb,ba,bb,ba,0.0,4647.74500009534,2023-07-26 19:38:27.830000+00:00,7,0.999,0.0,0.999,0.0,2.39698576841553,2.39698576841553,bb,bb,0.0,0.0
14,21.0,easy,CPE,control,prediction,explanation,3,control,hidden,3.0,,,,1.0,aa,ba,ba,ba,1.0,1520.4739999999874,2023-07-26 19:38:32.384000+00:00,8,0.0,0.624,0.0,0.625,1.9796212063976248,1.9810014688665836,ba,ba,1.0,1.0
14,21.0,easy,CPE,control,prediction,explanation,4,control,hidden,2.0,,,,2.0,aa,bb,bb,aa,0.0,3630.0370000953553,2023-07-26 19:38:39.040000+00:00,9,0.588,0.999,1.0,1.0,0.4683671164702777,0.0,bb,,0.0,
14,21.0,easy,CPE,control,prediction,explanation,5,control,hidden,3.0,,,,2.0,ab,ba,ab,ba,0.0,1561.8100000476695,2023-07-26 19:38:43.642000+00:00,10,0.375,0.0,0.001,0.0,1.5581446180465497,0.009950330853168,ab,ab,0.0,0.0
14,21.0,easy,CPE,control,prediction,explanation,1,prediction,visible,2.0,a,3.0,a,,3,1,1,1,1.0,2567.5779999999795,2023-07-26 19:39:03.386000+00:00,11,0.0,0.625,,,1.9810014688665836,,1,,1.0,
14,21.0,easy,CPE,control,prediction,explanation,2,prediction,visible,3.0,b,3.0,a,,1,3,1,1,1.0,4778.5,2023-07-26 19:39:11.697000+00:00,12,0.625,0.0,,,1.9810014688665836,,1,,1.0,
14,21.0,easy,CPE,control,prediction,explanation,3,prediction,visible,3.0,b,3.0,b,,1,3,3,3,1.0,3771.979000047664,2023-07-26 19:39:18.963000+00:00,13,0.0,0.999,,,2.39698576841553,,3,,1.0,
14,21.0,easy,CPE,control,prediction,explanation,4,prediction,visible,2.0,b,2.0,a,,1,3,3,1,0.0,2118.2360000477056,2023-07-26 19:39:24.631000+00:00,14,0.0,0.412,,,1.6331544390514163,,3,,0.0,
14,21.0,easy,CPE,control,prediction,explanation,5,prediction,visible,1.0,a,0.0,a,,2,0,2,2,1.0,1675.1240000953549,2023-07-26 19:39:29.832000+00:00,15,1.0,0.0,,,2.3978952727983707,,2,,1.0,
14,21.0,easy,CPE,control,prediction,explanation,1,prediction,hidden,2.0,b,,a,,1,3,3,1,0.0,1726.5250001430395,2023-07-26 19:39:35.047000+00:00,16,0.0,0.412,0.0,0.412,1.6331544390514163,1.6331544390514163,3,3,0.0,0.0
14,21.0,easy,CPE,control,prediction,explanation,2,prediction,hidden,0.0,b,,a,,3,0,0,0,1.0,1123.2730000953889,2023-07-26 19:39:39.189000+00:00,17,0.411,0.588,0.412,0.588,0.297419247729639,0.2954642128938357,0,0,1.0,1.0
14,21.0,easy,CPE,control,prediction,explanation,3,prediction,hidden,3.0,a,,b,,2,1,2,2,1.0,1395.4580001430586,2023-07-26 19:39:43.575000+00:00,18,0.375,0.001,0.001,0.001,1.5481942871933818,0.0,2,,1.0,
14,21.0,easy,CPE,control,prediction,explanation,4,prediction,hidden,2.0,a,,b,,0,3,3,0,0.0,1719.788000190747,2023-07-26 19:39:48.275000+00:00,19,0.0,0.412,0.0,0.0,1.6331544390514163,0.0,3,,0.0,
14,21.0,easy,CPE,control,prediction,explanation,5,prediction,hidden,2.0,a,,b,,1,3,3,3,1.0,1352.8360001907567,2023-07-26 19:39:52.699000+00:00,20,0.0,0.412,0.0,0.0,1.6331544390514163,0.0,3,,1.0,
14,21.0,easy,CPE,control,prediction,explanation,1,explanation,visible,0.0,b,2.0,a,3.0,,,2,1,0.0,8665.148000095389,2023-07-26 19:40:21.229000+00:00,21,0.412,0.0,,,1.6331544390514163,,2,,0.0,
14,21.0,easy,CPE,control,prediction,explanation,2,explanation,visible,2.0,a,0.0,a,2.0,,,1,2,0.0,2207.271000095352,2023-07-26 19:40:26.465000+00:00,22,0.0,0.588,,,1.928618651945252,,1,,0.0,
14,21.0,easy,CPE,control,prediction,explanation,3,explanation,visible,0.0,b,2.0,b,2.0,,,2,1,0.0,2672.7200000477023,2023-07-26 19:40:32.155000+00:00,23,0.999,0.0,,,2.39698576841553,,2,,0.0,
14,21.0,easy,CPE,control,prediction,explanation,4,explanation,visible,2.0,a,0.0,b,2.0,,,1,1,1.0,1491.9479999999749,2023-07-26 19:40:36.665000+00:00,24,0.0,0.588,,,1.928618651945252,,1,,1.0,
14,21.0,easy,CPE,control,prediction,explanation,5,explanation,visible,3.0,a,0.0,a,2.0,,,1,2,0.0,1444.4200001907302,2023-07-26 19:40:41.106000+00:00,25,0.0,0.375,,,1.5581446180465497,,1,,0.0,
14,21.0,easy,CPE,control,prediction,explanation,1,explanation,hidden,3.0,a,,b,2.0,,,1,2,0.0,2048.890000000014,2023-07-26 19:40:46.173000+00:00,26,0.001,0.375,0.0,0.0,1.5481942871933816,0.0,1,,0.0,
14,21.0,easy,CPE,control,prediction,explanation,2,explanation,hidden,0.0,b,,a,0.0,,,2,1,0.0,1926.3590000476688,2023-07-26 19:40:51.117000+00:00,27,0.588,0.0,0.588,0.0,1.928618651945252,1.928618651945252,2,2,0.0,0.0
14,21.0,easy,CPE,control,prediction,explanation,3,explanation,hidden,0.0,a,,a,0.0,,,2,2,1.0,1245.368000095361,2023-07-26 19:40:55.415000+00:00,28,0.588,0.0,0.588,0.0,1.928618651945252,1.928618651945252,2,2,1.0,1.0
14,21.0,easy,CPE,control,prediction,explanation,4,explanation,hidden,3.0,a,,a,2.0,,,1,2,0.0,1855.3880000953795,2023-07-26 19:41:00.305000+00:00,29,0.0,0.375,0.0,0.001,1.5581446180465497,0.009950330853168,1,1,0.0,0.0
14,21.0,easy,CPE,control,prediction,explanation,5,explanation,hidden,2.0,a,,a,2.0,,,1,1,1.0,1066.8410001907614,2023-07-26 19:41:04.398000+00:00,30,0.0,0.588,0.0,0.999,1.928618651945252,2.39698576841553,1,1,1.0,1.0
15,21.0,easy,ECP,explanation,control,prediction,1,explanation,visible,0.0,a,2.0,b,2.0,,,2,2,1.0,4153.97099999999,2023-07-26 19:38:28.712000+00:00,1,0.999,0.0,,,2.39698576841553,,2,,1.0,
15,21.0,easy,ECP,explanation,control,prediction,2,explanation,visible,3.0,a,1.0,a,0.0,,,1,2,0.0,6133.181000000361,2023-07-26 19:38:37.858000+00:00,2,0.001,0.666,,,2.026061652899332,,1,,0.0,
15,21.0,easy,ECP,explanation,control,prediction,3,explanation,visible,2.0,a,0.0,b,2.0,,,1,2,0.0,884.0740000003716,2023-07-26 19:38:41.759000+00:00,3,0.0,0.571,,,1.9035989509835904,,1,,0.0,
15,21.0,easy,ECP,explanation,control,prediction,4,explanation,visible,0.0,b,2.0,b,2.0,,,2,2,1.0,495.05600000038976,2023-07-26 19:38:45.270000+00:00,4,1.0,0.0,,,2.3978952727983707,,2,,1.0,
15,21.0,easy,ECP,explanation,control,prediction,5,explanation,visible,0.0,a,2.0,a,0.0,,,2,2,1.0,677.5030000000261,2023-07-26 19:38:48.969000+00:00,5,0.571,0.0,,,1.9035989509835904,,2,,1.0,
15,21.0,easy,ECP,explanation,control,prediction,1,explanation,hidden,0.0,b,,a,0.0,,,2,2,1.0,6830.071000000753,2023-07-26 19:38:58.939000+00:00,6,0.571,0.0,0.571,0.0,1.9035989509835904,1.9035989509835904,2,2,1.0,1.0
15,21.0,easy,ECP,explanation,control,prediction,2,explanation,hidden,2.0,a,,a,2.0,,,1,1,1.0,5955.602000000363,2023-07-26 19:39:07.914000+00:00,7,0.0,0.571,0.0,0.999,1.9035989509835904,2.39698576841553,1,1,1.0,1.0
15,21.0,easy,ECP,explanation,control,prediction,3,explanation,hidden,3.0,a,,b,2.0,,,1,2,0.0,1302.0970000005327,2023-07-26 19:39:12.227000+00:00,8,0.003,0.334,0.001,0.0,1.438315545870769,0.009950330853168,1,2,0.0,1.0
15,21.0,easy,ECP,explanation,control,prediction,4,explanation,hidden,0.0,a,,a,0.0,,,2,2,1.0,1473.310000000347,2023-07-26 19:39:16.715000+00:00,9,0.571,0.0,0.571,0.0,1.9035989509835904,1.9035989509835904,2,2,1.0,1.0
15,21.0,easy,ECP,explanation,control,prediction,5,explanation,hidden,3.0,b,,a,0.0,,,2,2,1.0,738.0169999999925,2023-07-26 19:39:20.463000+00:00,10,0.666,0.002,0.999,0.001,2.0162093564563204,2.387035437562362,2,2,1.0,1.0
15,21.0,easy,ECP,explanation,control,prediction,1,control,visible,3.0,b,3.0,,3.0,a,b,b,a,0.0,7882.746000000392,2023-07-26 19:39:50.408000+00:00,11,0.0,0.997,,,2.395164274287138,,b,,0.0,
15,21.0,easy,ECP,explanation,control,prediction,2,control,visible,2.0,a,3.0,,1.0,a,b,a,a,1.0,1380.572000000393,2023-07-26 19:39:55.306000+00:00,12,0.666,0.001,,,2.026061652899332,,a,,1.0,
15,21.0,easy,ECP,explanation,control,prediction,3,control,visible,3.0,b,3.0,,0.0,a,b,a,a,1.0,1201.7430000005406,2023-07-26 19:40:00.027000+00:00,13,0.333,0.001,,,1.4556172111612304,,a,,1.0,
15,21.0,easy,ECP,explanation,control,prediction,4,control,visible,0.0,b,2.0,,2.0,a,b,b,b,1.0,977.6420000001672,2023-07-26 19:40:04.520000+00:00,14,0.0,1.0,,,2.3978952727983707,,b,,1.0,
15,21.0,easy,ECP,explanation,control,prediction,5,control,visible,0.0,a,2.0,,2.0,a,b,b,b,1.0,804.4760000007227,2023-07-26 19:40:08.830000+00:00,15,0.0,1.0,,,2.3978952727983707,,b,,1.0,
15,21.0,easy,ECP,explanation,control,prediction,1,control,hidden,0.0,,,,2.0,aa,bb,bb,bb,1.0,4323.126000000397,2023-07-26 19:40:16.782000+00:00,16,0.0,0.999,0.0,1.0,2.39698576841553,2.3978952727983707,bb,bb,1.0,1.0
15,21.0,easy,ECP,explanation,control,prediction,2,control,hidden,2.0,,,,3.0,aa,ab,ab,aa,0.0,3503.620000000752,2023-07-26 19:40:23.296000+00:00,17,0.0,0.427,0.0,0.0,1.6620303625532709,0.0,ab,,0.0,
15,21.0,easy,ECP,explanation,control,prediction,3,control,hidden,3.0,,,,1.0,aa,ba,ba,aa,0.0,663.0180000003893,2023-07-26 19:40:26.972000+00:00,18,0.0,0.664,0.0,0.666,2.0333976031784293,2.0360119837525,ba,ba,0.0,0.0
15,21.0,easy,ECP,explanation,control,prediction,4,control,hidden,2.0,,,,1.0,ab,aa,aa,aa,1.0,1983.3540000003995,2023-07-26 19:40:31.959000+00:00,19,0.001,0.286,0.0,0.0,1.3407168526235715,0.0,aa,,1.0,
15,21.0,easy,ECP,explanation,control,prediction,5,control,hidden,0.0,,,,0.0,aa,ab,aa,aa,1.0,1423.0840000002063,2023-07-26 19:40:36.399000+00:00,20,0.571,0.0,0.571,0.0,1.9035989509835904,1.9035989509835904,aa,aa,1.0,1.0
15,21.0,easy,ECP,explanation,control,prediction,1,prediction,visible,1.0,a,0.0,a,,2,0,2,2,1.0,13463.236000000556,2023-07-26 19:41:05.006000+00:00,21,1.0,0.0,,,2.3978952727983707,,2,,1.0,
15,21.0,easy,ECP,explanation,control,prediction,2,prediction,visible,2.0,a,3.0,a,,0,3,0,0,1.0,683.8830000002054,2023-07-26 19:41:09.210000+00:00,22,0.333,0.0,,,1.4655675420143983,,0,,1.0,
15,21.0,easy,ECP,explanation,control,prediction,3,prediction,visible,2.0,b,2.0,a,,1,3,3,1,0.0,2894.954000000725,2023-07-26 19:41:15.621000+00:00,23,0.0,0.429,,,1.665818245870208,,3,,0.0,
15,21.0,easy,ECP,explanation,control,prediction,4,prediction,visible,3.0,b,3.0,b,,1,3,3,1,0.0,3586.870000000752,2023-07-26 19:41:22.713000+00:00,24,0.001,0.997,,,2.3852139434339708,,3,,0.0,
15,21.0,easy,ECP,explanation,control,prediction,5,prediction,visible,0.0,b,2.0,b,,2,3,2,2,1.0,1312.7210000005434,2023-07-26 19:41:27.539000+00:00,25,1.0,0.0,,,2.3978952727983707,,2,,1.0,
15,21.0,easy,ECP,explanation,control,prediction,1,prediction,hidden,2.0,b,,a,,1,3,3,1,0.0,4316.162000000768,2023-07-26 19:41:35.359000+00:00,26,0.0,0.428,0.0,0.428,1.66392609771817,1.66392609771817,3,3,0.0,0.0
15,21.0,easy,ECP,explanation,control,prediction,2,prediction,hidden,0.0,a,,a,,1,0,0,1,0.0,4814.673000000534,2023-07-26 19:41:43.191000+00:00,27,0.0,0.571,0.0,0.571,1.9035989509835904,1.9035989509835904,0,0,0.0,0.0
15,21.0,easy,ECP,explanation,control,prediction,3,prediction,hidden,3.0,b,,a,,3,1,1,1,1.0,2535.177000000549,2023-07-26 19:41:48.745000+00:00,28,0.001,0.665,0.0,0.667,2.024755316985277,2.0373166153791646,1,1,1.0,1.0
15,21.0,easy,ECP,explanation,control,prediction,4,prediction,hidden,0.0,b,,a,,3,0,0,0,1.0,1552.8500000007334,2023-07-26 19:41:53.313000+00:00,29,0.428,0.571,0.428,0.571,0.2396728532654202,0.2396728532654202,0,0,1.0,1.0
15,21.0,easy,ECP,explanation,control,prediction,5,prediction,hidden,2.0,a,,b,,1,3,3,1,0.0,3584.081000000355,2023-07-26 19:41:59.927000+00:00,30,0.001,0.427,0.0,0.0,1.652080031700103,0.0,3,,0.0,
16,21.0,easy,EPC,explanation,prediction,control,1,explanation,visible,2.0,a,0.0,b,2.0,,,1,2,0.0,2904.1599999999744,2023-07-26 19:39:28.224000+00:00,1,0.0,0.588,,,1.928618651945252,,1,,0.0,
16,21.0,easy,EPC,explanation,prediction,control,2,explanation,visible,0.0,a,2.0,b,2.0,,,2,2,1.0,1819.5,2023-07-26 19:39:33.075000+00:00,2,0.999,0.0,,,2.39698576841553,,2,,1.0,
16,21.0,easy,EPC,explanation,prediction,control,3,explanation,visible,0.0,b,2.0,b,2.0,,,2,2,1.0,1410.9400000000023,2023-07-26 19:39:37.522000+00:00,3,0.999,0.0,,,2.39698576841553,,2,,1.0,
16,21.0,easy,EPC,explanation,prediction,control,4,explanation,visible,3.0,a,1.0,a,0.0,,,1,2,0.0,5761.880000000005,2023-07-26 19:39:46.316000+00:00,4,0.0,0.57,,,1.9021075263969205,,1,,0.0,
16,21.0,easy,EPC,explanation,prediction,control,5,explanation,visible,3.0,a,0.0,a,2.0,,,1,2,0.0,1688.8800000000049,2023-07-26 19:39:51.026000+00:00,5,0.0,0.428,,,1.66392609771817,,1,,0.0,
16,21.0,easy,EPC,explanation,prediction,control,1,explanation,hidden,2.0,b,,b,2.0,,,2,2,1.0,2390.200000000012,2023-07-26 19:39:56.586000+00:00,6,0.588,0.0,0.999,0.0,1.928618651945252,2.39698576841553,2,2,1.0,1.0
16,21.0,easy,EPC,explanation,prediction,control,2,explanation,hidden,0.0,b,,a,0.0,,,2,2,1.0,2414.7999999999884,2023-07-26 19:40:02.028000+00:00,7,0.588,0.0,0.588,0.0,1.928618651945252,1.928618651945252,2,2,1.0,1.0
16,21.0,easy,EPC,explanation,prediction,control,3,explanation,hidden,3.0,a,,a,2.0,,,1,2,0.0,3547.719999999972,2023-07-26 19:40:08.618000+00:00,8,0.0,0.429,0.0,0.0,1.665818245870208,0.0,1,,0.0,
16,21.0,easy,EPC,explanation,prediction,control,4,explanation,hidden,2.0,a,,a,2.0,,,1,2,0.0,1359.6599999999744,2023-07-26 19:40:13.022000+00:00,9,0.0,0.588,0.0,0.999,1.928618651945252,2.39698576841553,1,1,0.0,0.0
16,21.0,easy,EPC,explanation,prediction,control,5,explanation,hidden,3.0,a,,b,2.0,,,1,2,0.0,1073.5999999999767,2023-07-26 19:40:17.129000+00:00,10,0.0,0.429,0.0,0.0,1.665818245870208,0.0,1,,0.0,
16,21.0,easy,EPC,explanation,prediction,control,1,prediction,visible,1.0,b,0.0,b,,2,1,2,2,1.0,1089.0999999999767,2023-07-26 19:40:39.446000+00:00,11,0.999,0.0,,,2.39698576841553,,2,,1.0,
16,21.0,easy,EPC,explanation,prediction,control,2,prediction,visible,0.0,b,2.0,b,,2,3,2,2,1.0,850.9400000000023,2023-07-26 19:40:43.836000+00:00,12,1.0,0.0,,,2.3978952727983707,,2,,1.0,
16,21.0,easy,EPC,explanation,prediction,control,3,prediction,visible,2.0,a,3.0,a,,3,1,1,1,1.0,6516.840000000026,2023-07-26 19:40:53.897000+00:00,13,0.0,0.571,,,1.9035989509835904,,1,,1.0,
16,21.0,easy,EPC,explanation,prediction,control,4,prediction,visible,3.0,a,1.0,b,,3,0,0,0,1.0,1256.219999999972,2023-07-26 19:40:58.700000+00:00,14,0.0,0.999,,,2.39698576841553,,0,,1.0,
16,21.0,easy,EPC,explanation,prediction,control,5,prediction,visible,1.0,a,0.0,a,,2,0,2,2,1.0,2663.5999999999767,2023-07-26 19:41:04.892000+00:00,15,1.0,0.0,,,2.3978952727983707,,2,,1.0,
16,21.0,easy,EPC,explanation,prediction,control,1,prediction,hidden,2.0,b,,a,,1,3,3,3,1.0,1704.2000000000116,2023-07-26 19:41:10.124000+00:00,16,0.0,0.412,0.0,0.412,1.6331544390514163,1.6331544390514163,3,3,1.0,1.0
16,21.0,easy,EPC,explanation,prediction,control,2,prediction,hidden,1.0,b,,a,,2,1,2,2,1.0,1865.140000000014,2023-07-26 19:41:15.019000+00:00,17,0.998,0.0,1.0,0.0,2.3960754360813845,2.3978952727983707,2,2,1.0,1.0
16,21.0,easy,EPC,explanation,prediction,control,3,prediction,hidden,2.0,a,,a,,3,1,1,3,0.0,2750.539999999979,2023-07-26 19:41:20.799000+00:00,18,0.0,0.235,0.0,0.0,1.2089603458369749,0.0,1,,0.0,
16,21.0,easy,EPC,explanation,prediction,control,4,prediction,hidden,3.0,b,,a,,3,1,1,1,1.0,2722.4400000000023,2023-07-26 19:41:26.562000+00:00,19,0.0,0.571,0.0,0.571,1.9035989509835904,1.9035989509835904,1,1,1.0,1.0
16,21.0,easy,EPC,explanation,prediction,control,5,prediction,hidden,3.0,a,,b,,2,1,2,2,1.0,3960.979999999981,2023-07-26 19:41:33.543000+00:00,20,0.429,0.0,0.0,0.0,1.665818245870208,0.0,2,,1.0,
16,21.0,easy,EPC,explanation,prediction,control,1,control,visible,0.0,a,2.0,,3.0,a,b,a,a,1.0,947.3400000000256,2023-07-26 19:41:57.138000+00:00,21,0.412,0.0,,,1.6331544390514163,,a,,1.0,
16,21.0,easy,EPC,explanation,prediction,control,2,control,visible,0.0,a,2.0,,2.0,a,b,b,b,1.0,654.3400000000256,2023-07-26 19:42:01.330000+00:00,22,0.0,1.0,,,2.3978952727983707,,b,,1.0,
16,21.0,easy,EPC,explanation,prediction,control,3,control,visible,2.0,a,3.0,,3.0,a,b,b,a,0.0,1146.7000000000116,2023-07-26 19:42:06.011000+00:00,23,0.0,1.0,,,2.3978952727983707,,b,,0.0,
16,21.0,easy,EPC,explanation,prediction,control,4,control,visible,3.0,b,3.0,,3.0,a,b,b,a,0.0,1169.0200000000186,2023-07-26 19:42:10.717000+00:00,24,0.0,1.0,,,2.3978952727983707,,b,,0.0,
16,21.0,easy,EPC,explanation,prediction,control,5,control,visible,0.0,b,2.0,,3.0,a,b,a,a,1.0,926.280000000028,2023-07-26 19:42:15.176000+00:00,25,0.412,0.0,,,1.6331544390514163,,a,,1.0,
16,21.0,easy,EPC,explanation,prediction,control,1,control,hidden,3.0,,,,1.0,aa,ba,ba,ba,1.0,8549.400000000023,2023-07-26 19:42:27.518000+00:00,26,0.0,0.571,0.0,0.571,1.9035989509835904,1.9035989509835904,ba,ba,1.0,1.0
16,21.0,easy,EPC,explanation,prediction,control,2,control,hidden,2.0,,,,1.0,ab,aa,aa,ab,0.0,5843.280000000028,2023-07-26 19:42:36.392000+00:00,27,0.0,0.235,0.0,0.0,1.2089603458369749,0.0,aa,,0.0,
16,21.0,easy,EPC,explanation,prediction,control,3,control,hidden,0.0,,,,0.0,aa,ab,aa,ab,0.0,5561.979999999981,2023-07-26 19:42:44.994000+00:00,28,0.588,0.0,0.588,0.0,1.928618651945252,1.928618651945252,aa,aa,0.0,0.0
16,21.0,easy,EPC,explanation,prediction,control,4,control,hidden,3.0,,,,2.0,ab,ba,ab,ab,1.0,765.0599999999977,2023-07-26 19:42:48.805000+00:00,29,0.429,0.0,0.0,0.0,1.665818245870208,0.0,ab,,1.0,
16,21.0,easy,EPC,explanation,prediction,control,5,control,hidden,0.0,,,,3.0,ab,aa,aa,aa,1.0,937.719999999972,2023-07-26 19:42:52.787000+00:00,30,0.0,0.412,0.0,0.412,1.6331544390514163,1.6331544390514163,aa,aa,1.0,1.0
18,21.0,easy,PCE,prediction,control,explanation,1,prediction,visible,2.0,b,2.0,a,,1,3,3,3,1.0,5525.350999999995,2023-07-26 19:43:02.991000+00:00,1,0.0,0.421,,,1.6505798557652755,,3,,1.0,
18,21.0,easy,PCE,prediction,control,explanation,2,prediction,visible,3.0,a,1.0,b,,3,0,0,0,1.0,4078.017999976146,2023-07-26 19:43:10.610000+00:00,2,0.001,0.997,,,2.3852139434339708,,0,,1.0,
18,21.0,easy,PCE,prediction,control,explanation,3,prediction,visible,1.0,b,0.0,b,,2,1,2,2,1.0,1901.7910000476693,2023-07-26 19:43:16.050000+00:00,3,1.0,0.0,,,2.3978952727983707,,2,,1.0,
18,21.0,easy,PCE,prediction,control,explanation,4,prediction,visible,1.0,a,0.0,a,,2,0,2,2,1.0,2667.519999952317,2023-07-26 19:43:22.232000+00:00,4,1.0,0.0,,,2.3978952727983707,,2,,1.0,
18,21.0,easy,PCE,prediction,control,explanation,5,prediction,visible,2.0,a,3.0,a,,3,1,1,1,1.0,1161.0719999999856,2023-07-26 19:43:26.909000+00:00,5,0.0,0.625,,,1.9810014688665836,,1,,1.0,
18,21.0,easy,PCE,prediction,control,explanation,1,prediction,hidden,2.0,a,,b,,0,3,3,3,1.0,5026.4739999761805,2023-07-26 19:43:35.641000+00:00,6,0.105,0.105,0.0,0.0,0.0,0.0,,,,
18,21.0,easy,PCE,prediction,control,explanation,2,prediction,hidden,3.0,a,,a,,2,1,2,1,0.0,2347.7299999523093,2023-07-26 19:43:41.045000+00:00,7,0.375,0.0,0.0,0.0,1.5581446180465497,0.0,2,,0.0,
18,21.0,easy,PCE,prediction,control,explanation,3,prediction,hidden,3.0,a,,b,,2,1,2,2,1.0,2052.384999952337,2023-07-26 19:43:46.116000+00:00,8,0.375,0.001,0.001,0.001,1.5481942871933818,0.0,2,,1.0,
18,21.0,easy,PCE,prediction,control,explanation,4,prediction,hidden,2.0,a,,b,,1,3,3,3,1.0,2752.786000000022,2023-07-26 19:43:51.899000+00:00,9,0.105,0.105,0.0,0.0,0.0,0.0,,,,
18,21.0,easy,PCE,prediction,control,explanation,5,prediction,hidden,0.0,a,,a,,1,0,0,1,0.0,2466.850999976159,2023-07-26 19:43:57.381000+00:00,10,0.0,0.579,0.0,0.579,1.9154509415706045,1.9154509415706045,0,0,0.0,0.0
18,21.0,easy,PCE,prediction,control,explanation,1,control,visible,2.0,b,2.0,,2.0,a,b,b,b,1.0,1074.9199999761768,2023-07-26 19:44:12.971000+00:00,11,0.0,1.0,,,2.3978952727983707,,b,,1.0,
18,21.0,easy,PCE,prediction,control,explanation,2,control,visible,0.0,b,2.0,,2.0,a,b,b,b,1.0,1402.1630000000005,2023-07-26 19:44:17.915000+00:00,12,0.0,1.0,,,2.3978952727983707,,b,,1.0,
18,21.0,easy,PCE,prediction,control,explanation,3,control,visible,0.0,a,2.0,,3.0,a,b,a,a,1.0,1741.7570000476553,2023-07-26 19:44:23.171000+00:00,13,0.421,0.0,,,1.6505798557652755,,a,,1.0,
18,21.0,easy,PCE,prediction,control,explanation,4,control,visible,0.0,a,2.0,,2.0,a,b,b,b,1.0,663.4290000238689,2023-07-26 19:44:27.342000+00:00,14,0.0,1.0,,,2.3978952727983707,,b,,1.0,
18,21.0,easy,PCE,prediction,control,explanation,5,control,visible,0.0,a,2.0,,0.0,a,b,a,a,1.0,1135.3959999523358,2023-07-26 19:44:31.997000+00:00,15,0.579,0.0,,,1.9154509415706047,,a,,1.0,
18,21.0,easy,PCE,prediction,control,explanation,1,control,hidden,0.0,,,,3.0,ab,aa,aa,aa,1.0,3210.5660000238568,2023-07-26 19:44:38.906000+00:00,16,0.0,0.421,0.0,0.421,1.6505798557652755,1.6505798557652755,aa,aa,1.0,1.0
18,21.0,easy,PCE,prediction,control,explanation,2,control,hidden,0.0,,,,0.0,aa,ab,aa,ab,0.0,2288.0920000238693,2023-07-26 19:44:44.250000+00:00,17,0.579,0.0,0.579,0.0,1.9154509415706047,1.9154509415706047,aa,aa,0.0,0.0
18,21.0,easy,PCE,prediction,control,explanation,3,control,hidden,0.0,,,,2.0,aa,bb,bb,bb,1.0,3163.1869999999763,2023-07-26 19:44:50.425000+00:00,18,0.0,0.999,0.0,1.0,2.39698576841553,2.3978952727983707,bb,bb,1.0,1.0
18,21.0,easy,PCE,prediction,control,explanation,4,control,hidden,3.0,,,,2.0,aa,bb,aa,aa,1.0,3200.966999976139,2023-07-26 19:44:56.646000+00:00,19,0.375,0.563,0.0,1.0,0.3334601861512213,2.3978952727983707,bb,bb,0.0,0.0
18,21.0,easy,PCE,prediction,control,explanation,5,control,hidden,3.0,,,,1.0,aa,ba,ba,aa,0.0,4719.3249999761465,2023-07-26 19:45:04.397000+00:00,20,0.0,0.156,0.0,0.0,0.9400072584914712,0.0,ba,,0.0,
18,21.0,easy,PCE,prediction,control,explanation,1,explanation,visible,3.0,a,1.0,b,0.0,,,1,1,1.0,2469.5509999761707,2023-07-26 19:45:28.863000+00:00,21,0.249,0.624,,,0.7297194701832893,,1,,1.0,
18,21.0,easy,PCE,prediction,control,explanation,2,explanation,visible,0.0,a,2.0,b,2.0,,,2,2,1.0,580.3430000476656,2023-07-26 19:45:32.491000+00:00,22,0.999,0.0,,,2.39698576841553,,2,,1.0,
18,21.0,easy,PCE,prediction,control,explanation,3,explanation,visible,0.0,b,2.0,b,2.0,,,2,1,0.0,4015.94099995232,2023-07-26 19:45:39.527000+00:00,23,0.999,0.0,,,2.39698576841553,,2,,0.0,
18,21.0,easy,PCE,prediction,control,explanation,4,explanation,visible,2.0,a,0.0,b,2.0,,,1,2,0.0,552.7660000238684,2023-07-26 19:45:43.146000+00:00,24,0.0,0.579,,,1.9154509415706045,,1,,0.0,
18,21.0,easy,PCE,prediction,control,explanation,5,explanation,visible,3.0,a,0.0,a,2.0,,,1,2,0.0,4679.529000047711,2023-07-26 19:45:50.856000+00:00,25,0.25,0.375,,,0.3053816495511819,,1,,0.0,
18,21.0,easy,PCE,prediction,control,explanation,1,explanation,hidden,3.0,a,,b,0.0,,,1,1,1.0,1294.2380000476842,2023-07-26 19:45:55.187000+00:00,26,0.312,0.624,0.0,0.999,0.5637680430361898,2.39698576841553,1,1,1.0,1.0
18,21.0,easy,PCE,prediction,control,explanation,2,explanation,hidden,3.0,a,,b,2.0,,,1,2,0.0,1419.684000023815,2023-07-26 19:45:59.662000+00:00,27,0.563,0.375,1.0,0.0,0.3334601861512212,2.3978952727983707,2,2,1.0,1.0
