participant_id,fsm_number,fsm_type,test_condition,learning_condition,trial_number,trial_type,state_1,response_1,state_2,response_2,state_3,option_1,option_2,correctResponse,response,response_correct,response_time
244,22.0,hard,prediction,Experiment 2 (test preview),1,hidden,1.0,b,,a,,3.0,2.0,2.0,3,0.0,10499.604000023828
244,22.0,hard,prediction,Experiment 2 (test preview),2,visible,2.0,b,1.0,b,,1.0,0.0,1.0,1,1.0,5083.261000047671
244,22.0,hard,prediction,Experiment 2 (test preview),3,hidden,1.0,b,,a,,3.0,0.0,0.0,0,1.0,3436.149000023841
244,22.0,hard,prediction,Experiment 2 (test preview),4,visible,2.0,a,2.0,b,,0.0,3.0,0.0,3,0.0,4760.518000023847
244,22.0,hard,prediction,Experiment 2 (test preview),5,visible,0.0,a,3.0,a,,3.0,0.0,0.0,0,1.0,3567.896999999997
244,22.0,hard,prediction,Experiment 2 (test preview),6,hidden,0.0,a,,a,,1.0,0.0,0.0,0,1.0,4681.5500000238535
244,22.0,hard,prediction,Experiment 2 (test preview),7,visible,1.0,b,3.0,b,,3.0,0.0,3.0,3,1.0,3918.3250000238186
244,22.0,hard,prediction,Experiment 2 (test preview),8,visible,2.0,b,1.0,a,,3.0,1.0,1.0,1,1.0,7296.0260000238195
244,22.0,hard,prediction,Experiment 2 (test preview),9,visible,3.0,b,2.0,a,,1.0,2.0,2.0,2,1.0,9428.32799999998
244,22.0,hard,prediction,Experiment 2 (test preview),10,visible,1.0,a,0.0,a,,3.0,0.0,3.0,0,0.0,4408.605000071519
244,22.0,hard,prediction,Experiment 2 (test preview),11,hidden,2.0,b,,b,,1.0,3.0,3.0,3,1.0,7225.924000023864
244,22.0,hard,prediction,Experiment 2 (test preview),12,visible,0.0,b,3.0,a,,2.0,1.0,2.0,2,1.0,8255.962
244,22.0,hard,prediction,Experiment 2 (test preview),13,visible,3.0,a,0.0,b,,3.0,0.0,3.0,3,1.0,7770.617000095372
244,22.0,hard,prediction,Experiment 2 (test preview),14,hidden,3.0,a,,b,,2.0,3.0,3.0,3,1.0,5415.878000023833
244,22.0,hard,prediction,Experiment 2 (test preview),15,visible,0.0,a,3.0,b,,2.0,1.0,2.0,1,0.0,11182.771000071543
244,22.0,hard,prediction,Experiment 2 (test preview),16,hidden,2.0,a,,a,,2.0,3.0,2.0,2,1.0,5204.951000000001
244,22.0,hard,prediction,Experiment 2 (test preview),17,hidden,1.0,a,,a,,3.0,2.0,3.0,2,0.0,4439.690999999992
244,22.0,hard,prediction,Experiment 2 (test preview),18,hidden,3.0,b,,b,,1.0,3.0,1.0,3,0.0,4447.436999999976
244,22.0,hard,prediction,Experiment 2 (test preview),19,hidden,2.0,a,,b,,1.0,2.0,1.0,1,1.0,4977.084000023839
244,22.0,hard,prediction,Experiment 2 (test preview),20,hidden,3.0,a,,a,,0.0,3.0,3.0,0,0.0,2338.115000023856
245,22.0,hard,prediction,Experiment 2 (test preview),1,hidden,0.0,a,,a,,1.0,0.0,0.0,0,1.0,3515.57699999999
245,22.0,hard,prediction,Experiment 2 (test preview),2,visible,0.0,b,3.0,a,,2.0,1.0,2.0,2,1.0,2027.9929998092705
245,22.0,hard,prediction,Experiment 2 (test preview),3,hidden,3.0,b,,b,,1.0,3.0,1.0,1,1.0,5863.1689996185305
245,22.0,hard,prediction,Experiment 2 (test preview),4,visible,1.0,b,3.0,b,,3.0,0.0,3.0,0,0.0,2036.377999999997
245,22.0,hard,prediction,Experiment 2 (test preview),5,hidden,1.0,a,,a,,3.0,2.0,3.0,3,1.0,3162.108999618504
245,22.0,hard,prediction,Experiment 2 (test preview),6,visible,2.0,a,2.0,b,,0.0,3.0,0.0,0,1.0,2282.9920000000275
245,22.0,hard,prediction,Experiment 2 (test preview),7,visible,0.0,a,3.0,a,,3.0,0.0,0.0,0,1.0,1274.277999904647
245,22.0,hard,prediction,Experiment 2 (test preview),8,visible,3.0,a,0.0,b,,3.0,0.0,3.0,3,1.0,2482.291999713925
245,22.0,hard,prediction,Experiment 2 (test preview),9,visible,2.0,b,1.0,b,,1.0,0.0,1.0,0,0.0,3224.6570000000065
245,22.0,hard,prediction,Experiment 2 (test preview),10,hidden,2.0,a,,a,,2.0,3.0,2.0,3,0.0,3054.843999618548
245,22.0,hard,prediction,Experiment 2 (test preview),11,hidden,3.0,a,,a,,0.0,3.0,3.0,0,0.0,2086.6940000000177
245,22.0,hard,prediction,Experiment 2 (test preview),12,hidden,1.0,b,,a,,3.0,0.0,0.0,0,1.0,4223.3009999046335
245,22.0,hard,prediction,Experiment 2 (test preview),13,hidden,2.0,b,,b,,1.0,3.0,3.0,3,1.0,1706.786000000022
245,22.0,hard,prediction,Experiment 2 (test preview),14,hidden,3.0,a,,b,,2.0,3.0,3.0,2,0.0,1653.5069999999832
245,22.0,hard,prediction,Experiment 2 (test preview),15,visible,3.0,b,2.0,a,,1.0,2.0,2.0,2,1.0,4369.941999904637
245,22.0,hard,prediction,Experiment 2 (test preview),16,visible,1.0,a,0.0,a,,3.0,0.0,3.0,3,1.0,2309.05399990466
245,22.0,hard,prediction,Experiment 2 (test preview),17,visible,0.0,a,3.0,b,,2.0,1.0,2.0,2,1.0,767.5069999046391
245,22.0,hard,prediction,Experiment 2 (test preview),18,visible,2.0,b,1.0,a,,3.0,1.0,1.0,3,0.0,3736.19899990462
245,22.0,hard,prediction,Experiment 2 (test preview),19,hidden,2.0,a,,b,,1.0,2.0,1.0,2,0.0,2516.824999809265
245,22.0,hard,prediction,Experiment 2 (test preview),20,hidden,1.0,b,,a,,3.0,2.0,2.0,2,1.0,545.619000000006
247,22.0,hard,prediction,Experiment 2 (test preview),1,visible,3.0,b,2.0,a,,1.0,2.0,2.0,2,1.0,3723.237000095367
247,22.0,hard,prediction,Experiment 2 (test preview),2,hidden,1.0,a,,a,,3.0,2.0,3.0,2,0.0,9872.180999999982
247,22.0,hard,prediction,Experiment 2 (test preview),3,hidden,3.0,a,,a,,0.0,3.0,3.0,0,0.0,3158.6119999522925
247,22.0,hard,prediction,Experiment 2 (test preview),4,hidden,1.0,b,,a,,3.0,0.0,0.0,3,0.0,4670.914999952307
247,22.0,hard,prediction,Experiment 2 (test preview),5,visible,2.0,b,1.0,a,,3.0,1.0,1.0,3,0.0,4845.581999952323
247,22.0,hard,prediction,Experiment 2 (test preview),6,hidden,3.0,a,,b,,2.0,3.0,3.0,2,0.0,3757.366999904625
247,22.0,hard,prediction,Experiment 2 (test preview),7,hidden,2.0,a,,a,,2.0,3.0,2.0,2,1.0,3905.6759999046335
247,22.0,hard,prediction,Experiment 2 (test preview),8,visible,0.0,b,3.0,a,,2.0,1.0,2.0,2,1.0,4844.909999999974
247,22.0,hard,prediction,Experiment 2 (test preview),9,visible,2.0,a,2.0,b,,0.0,3.0,0.0,3,0.0,7497.237000095367
247,22.0,hard,prediction,Experiment 2 (test preview),10,hidden,0.0,a,,a,,1.0,0.0,0.0,0,1.0,644.1959999999963
247,22.0,hard,prediction,Experiment 2 (test preview),11,visible,3.0,a,0.0,b,,3.0,0.0,3.0,0,0.0,15915.836999952327
247,22.0,hard,prediction,Experiment 2 (test preview),12,visible,2.0,b,1.0,b,,1.0,0.0,1.0,1,1.0,1476.908999904641
247,22.0,hard,prediction,Experiment 2 (test preview),13,visible,0.0,a,3.0,a,,3.0,0.0,0.0,3,0.0,6650.561999904632
247,22.0,hard,prediction,Experiment 2 (test preview),14,hidden,2.0,a,,b,,1.0,2.0,1.0,1,1.0,5260.897999904642
247,22.0,hard,prediction,Experiment 2 (test preview),15,hidden,1.0,b,,a,,3.0,2.0,2.0,3,0.0,2957.015000095358
247,22.0,hard,prediction,Experiment 2 (test preview),16,hidden,3.0,b,,b,,1.0,3.0,1.0,1,1.0,9318.828000095382
247,22.0,hard,prediction,Experiment 2 (test preview),17,hidden,2.0,b,,b,,1.0,3.0,3.0,1,0.0,2978.166999904613
247,22.0,hard,prediction,Experiment 2 (test preview),18,visible,1.0,b,3.0,b,,3.0,0.0,3.0,0,0.0,2669.627000095381
247,22.0,hard,prediction,Experiment 2 (test preview),19,visible,1.0,a,0.0,a,,3.0,0.0,3.0,0,0.0,5520.477999904659
247,22.0,hard,prediction,Experiment 2 (test preview),20,visible,0.0,a,3.0,b,,2.0,1.0,2.0,1,0.0,1374.5189999999711
246,22.0,hard,prediction,Experiment 2 (test preview),1,hidden,0.0,a,,a,,1.0,0.0,0.0,0,1.0,6937.295999999624
246,22.0,hard,prediction,Experiment 2 (test preview),2,hidden,2.0,a,,a,,2.0,3.0,2.0,2,1.0,1282.44200000001
246,22.0,hard,prediction,Experiment 2 (test preview),3,visible,2.0,a,2.0,b,,0.0,3.0,0.0,0,1.0,4421.901999999624
246,22.0,hard,prediction,Experiment 2 (test preview),4,visible,1.0,a,0.0,a,,3.0,0.0,3.0,0,0.0,4915.619000000006
246,22.0,hard,prediction,Experiment 2 (test preview),5,visible,2.0,b,1.0,b,,1.0,0.0,1.0,0,0.0,3170.7590000007185
246,22.0,hard,prediction,Experiment 2 (test preview),6,hidden,1.0,b,,a,,3.0,0.0,0.0,0,1.0,3045.6470000003465
246,22.0,hard,prediction,Experiment 2 (test preview),7,hidden,2.0,b,,b,,1.0,3.0,3.0,1,0.0,5009.380999999994
246,22.0,hard,prediction,Experiment 2 (test preview),8,hidden,1.0,a,,a,,3.0,2.0,3.0,2,0.0,1787.957000000344
246,22.0,hard,prediction,Experiment 2 (test preview),9,visible,2.0,b,1.0,a,,3.0,1.0,1.0,3,0.0,2479.5610000003944
246,22.0,hard,prediction,Experiment 2 (test preview),10,visible,3.0,b,2.0,a,,1.0,2.0,2.0,2,1.0,3867.8690000007623
246,22.0,hard,prediction,Experiment 2 (test preview),11,visible,1.0,b,3.0,b,,3.0,0.0,3.0,0,0.0,3900.10100000113
246,22.0,hard,prediction,Experiment 2 (test preview),12,visible,0.0,a,3.0,b,,2.0,1.0,2.0,1,0.0,2514.735999999976
246,22.0,hard,prediction,Experiment 2 (test preview),13,hidden,3.0,b,,b,,1.0,3.0,1.0,3,0.0,6480.512000001094
246,22.0,hard,prediction,Experiment 2 (test preview),14,visible,0.0,a,3.0,a,,3.0,0.0,0.0,0,1.0,3516.5250000003725
246,22.0,hard,prediction,Experiment 2 (test preview),15,visible,0.0,b,3.0,a,,2.0,1.0,2.0,2,1.0,1127.041000000725
246,22.0,hard,prediction,Experiment 2 (test preview),16,hidden,3.0,a,,b,,2.0,3.0,3.0,3,1.0,4083.884000000369
246,22.0,hard,prediction,Experiment 2 (test preview),17,hidden,2.0,a,,b,,1.0,2.0,1.0,1,1.0,1599.0870000003488
246,22.0,hard,prediction,Experiment 2 (test preview),18,hidden,1.0,b,,a,,3.0,2.0,2.0,2,1.0,3016.427000001131
246,22.0,hard,prediction,Experiment 2 (test preview),19,visible,3.0,a,0.0,b,,3.0,0.0,3.0,3,1.0,2546.455000000365
246,22.0,hard,prediction,Experiment 2 (test preview),20,hidden,3.0,a,,a,,0.0,3.0,3.0,0,0.0,2400.533000000345
248,22.0,hard,prediction,Experiment 2 (test preview),1,visible,0.0,a,3.0,b,,2.0,1.0,2.0,2,1.0,3081.4339999977383
248,22.0,hard,prediction,Experiment 2 (test preview),2,hidden,1.0,b,,a,,3.0,2.0,2.0,3,0.0,6870.072999999975
248,22.0,hard,prediction,Experiment 2 (test preview),3,visible,2.0,b,1.0,b,,1.0,0.0,1.0,0,0.0,8537.710999997042
248,22.0,hard,prediction,Experiment 2 (test preview),4,hidden,3.0,a,,b,,2.0,3.0,3.0,3,1.0,5579.856999996991
248,22.0,hard,prediction,Experiment 2 (test preview),5,visible,1.0,b,3.0,b,,3.0,0.0,3.0,0,0.0,8146.757999997761
248,22.0,hard,prediction,Experiment 2 (test preview),6,visible,0.0,a,3.0,a,,3.0,0.0,0.0,0,1.0,8658.007999998517
248,22.0,hard,prediction,Experiment 2 (test preview),7,hidden,2.0,b,,b,,1.0,3.0,3.0,1,0.0,5791.518999998516
248,22.0,hard,prediction,Experiment 2 (test preview),8,visible,3.0,b,2.0,a,,1.0,2.0,2.0,1,0.0,9294.358999997785
248,22.0,hard,prediction,Experiment 2 (test preview),9,visible,1.0,a,0.0,a,,3.0,0.0,3.0,0,0.0,7385.408999999985
248,22.0,hard,prediction,Experiment 2 (test preview),10,hidden,3.0,b,,b,,1.0,3.0,1.0,3,0.0,7576.649999997753
248,22.0,hard,prediction,Experiment 2 (test preview),11,visible,2.0,a,2.0,b,,0.0,3.0,0.0,3,0.0,6017.056999999273
248,22.0,hard,prediction,Experiment 2 (test preview),12,hidden,3.0,a,,a,,0.0,3.0,3.0,3,1.0,12004.652999999991
248,22.0,hard,prediction,Experiment 2 (test preview),13,visible,2.0,b,1.0,a,,3.0,1.0,1.0,3,0.0,11897.97299999703
248,22.0,hard,prediction,Experiment 2 (test preview),14,hidden,1.0,b,,a,,3.0,0.0,0.0,0,1.0,8252.39799999923
248,22.0,hard,prediction,Experiment 2 (test preview),15,hidden,2.0,a,,a,,2.0,3.0,2.0,2,1.0,4993.879999999248
248,22.0,hard,prediction,Experiment 2 (test preview),16,hidden,0.0,a,,a,,1.0,0.0,0.0,1,0.0,13486.723999998532
248,22.0,hard,prediction,Experiment 2 (test preview),17,visible,3.0,a,0.0,b,,3.0,0.0,3.0,3,1.0,15990.15199999779
248,22.0,hard,prediction,Experiment 2 (test preview),18,hidden,1.0,a,,a,,3.0,2.0,3.0,2,0.0,3270.7789999999804
248,22.0,hard,prediction,Experiment 2 (test preview),19,hidden,2.0,a,,b,,1.0,2.0,1.0,1,1.0,2253.542000000016
248,22.0,hard,prediction,Experiment 2 (test preview),20,visible,0.0,b,3.0,a,,2.0,1.0,2.0,1,0.0,1971.812999998452
333,22.0,hard,prediction,Experiment 2 (test preview),1,hidden,2.0,a,,b,,1.0,2.0,1.0,1,1.0,6106.608000035776
333,22.0,hard,prediction,Experiment 2 (test preview),2,hidden,0.0,a,,a,,1.0,0.0,0.0,1,0.0,5634.076000023837
333,22.0,hard,prediction,Experiment 2 (test preview),3,hidden,1.0,a,,a,,3.0,2.0,3.0,2,0.0,2042.4670000476765
333,22.0,hard,prediction,Experiment 2 (test preview),4,visible,0.0,a,3.0,a,,3.0,0.0,0.0,3,0.0,727.3370000357681
333,22.0,hard,prediction,Experiment 2 (test preview),5,hidden,3.0,b,,b,,1.0,3.0,1.0,1,1.0,4548.930000011926
333,22.0,hard,prediction,Experiment 2 (test preview),6,visible,0.0,b,3.0,a,,2.0,1.0,2.0,2,1.0,1258.4219999999914
333,22.0,hard,prediction,Experiment 2 (test preview),7,visible,1.0,b,3.0,b,,3.0,0.0,3.0,0,0.0,2397.747000000003
333,22.0,hard,prediction,Experiment 2 (test preview),8,visible,2.0,a,2.0,b,,0.0,3.0,0.0,0,1.0,1668.8960000119114
333,22.0,hard,prediction,Experiment 2 (test preview),9,hidden,3.0,a,,a,,0.0,3.0,3.0,0,0.0,2453.0880000357865
333,22.0,hard,prediction,Experiment 2 (test preview),10,hidden,2.0,b,,b,,1.0,3.0,3.0,1,0.0,1767.3570000118923
333,22.0,hard,prediction,Experiment 2 (test preview),11,hidden,1.0,b,,a,,3.0,0.0,0.0,0,1.0,3281.902000047674
333,22.0,hard,prediction,Experiment 2 (test preview),12,visible,3.0,a,0.0,b,,3.0,0.0,3.0,3,1.0,1911.369000047678
333,22.0,hard,prediction,Experiment 2 (test preview),13,visible,0.0,a,3.0,b,,2.0,1.0,2.0,1,0.0,1051.2240000476595
333,22.0,hard,prediction,Experiment 2 (test preview),14,hidden,3.0,a,,b,,2.0,3.0,3.0,2,0.0,1543.230000035779
333,22.0,hard,prediction,Experiment 2 (test preview),15,visible,3.0,b,2.0,a,,1.0,2.0,2.0,2,1.0,1648.0370000476833
333,22.0,hard,prediction,Experiment 2 (test preview),16,visible,2.0,b,1.0,b,,1.0,0.0,1.0,0,0.0,1073.762000023853
333,22.0,hard,prediction,Experiment 2 (test preview),17,hidden,2.0,a,,a,,2.0,3.0,2.0,3,0.0,1273.1940000357572
333,22.0,hard,prediction,Experiment 2 (test preview),18,visible,2.0,b,1.0,a,,3.0,1.0,1.0,3,0.0,638.0600000238628
333,22.0,hard,prediction,Experiment 2 (test preview),19,hidden,1.0,b,,a,,3.0,2.0,2.0,2,1.0,4004.014000023832
333,22.0,hard,prediction,Experiment 2 (test preview),20,visible,1.0,a,0.0,a,,3.0,0.0,3.0,3,1.0,2282.1800000357907
249,22.0,hard,prediction,Experiment 2 (test preview),1,visible,0.0,a,3.0,b,,2.0,1.0,2.0,1,0.0,3470.820000000007
249,22.0,hard,prediction,Experiment 2 (test preview),2,hidden,3.0,a,,b,,2.0,3.0,3.0,2,0.0,3582.4400000000023
249,22.0,hard,prediction,Experiment 2 (test preview),3,hidden,1.0,a,,a,,3.0,2.0,3.0,3,1.0,4819.279999999999
249,22.0,hard,prediction,Experiment 2 (test preview),4,visible,3.0,b,2.0,a,,1.0,2.0,2.0,2,1.0,3231.2600000000093
249,22.0,hard,prediction,Experiment 2 (test preview),5,hidden,3.0,a,,a,,0.0,3.0,3.0,0,0.0,3894.320000000007
249,22.0,hard,prediction,Experiment 2 (test preview),6,hidden,2.0,a,,a,,2.0,3.0,2.0,3,0.0,4829.239999999991
249,22.0,hard,prediction,Experiment 2 (test preview),7,visible,2.0,a,2.0,b,,0.0,3.0,0.0,3,0.0,1928.2799999999988
249,22.0,hard,prediction,Experiment 2 (test preview),8,hidden,3.0,b,,b,,1.0,3.0,1.0,1,1.0,2788.720000000001
249,22.0,hard,prediction,Experiment 2 (test preview),9,visible,0.0,a,3.0,a,,3.0,0.0,0.0,3,0.0,1417.9000000000233
249,22.0,hard,prediction,Experiment 2 (test preview),10,visible,2.0,b,1.0,a,,3.0,1.0,1.0,3,0.0,3449.200000000012
249,22.0,hard,prediction,Experiment 2 (test preview),11,visible,1.0,a,0.0,a,,3.0,0.0,3.0,0,0.0,2029.719999999972
249,22.0,hard,prediction,Experiment 2 (test preview),12,hidden,2.0,a,,b,,1.0,2.0,1.0,1,1.0,3380.179999999993
249,22.0,hard,prediction,Experiment 2 (test preview),13,hidden,1.0,b,,a,,3.0,0.0,0.0,3,0.0,1830.960000000021
249,22.0,hard,prediction,Experiment 2 (test preview),14,visible,3.0,a,0.0,b,,3.0,0.0,3.0,0,0.0,2258.320000000007
249,22.0,hard,prediction,Experiment 2 (test preview),15,visible,0.0,b,3.0,a,,2.0,1.0,2.0,2,1.0,1578.7000000000116
249,22.0,hard,prediction,Experiment 2 (test preview),16,hidden,1.0,b,,a,,3.0,2.0,2.0,2,1.0,2550.4000000000237
249,22.0,hard,prediction,Experiment 2 (test preview),17,visible,2.0,b,1.0,b,,1.0,0.0,1.0,0,0.0,1401.1199999999951
249,22.0,hard,prediction,Experiment 2 (test preview),18,hidden,2.0,b,,b,,1.0,3.0,3.0,1,0.0,2518.4799999999814
249,22.0,hard,prediction,Experiment 2 (test preview),19,hidden,0.0,a,,a,,1.0,0.0,0.0,1,0.0,2425.280000000028
249,22.0,hard,prediction,Experiment 2 (test preview),20,visible,1.0,b,3.0,b,,3.0,0.0,3.0,3,1.0,1606.9000000000233
250,22.0,hard,prediction,Experiment 2 (test preview),1,visible,2.0,b,1.0,a,,3.0,1.0,1.0,1,1.0,6134.370999988081
250,22.0,hard,prediction,Experiment 2 (test preview),2,visible,2.0,b,1.0,b,,1.0,0.0,1.0,1,1.0,3984.355999976164
250,22.0,hard,prediction,Experiment 2 (test preview),3,visible,1.0,a,0.0,a,,3.0,0.0,3.0,0,0.0,3372.2330000000075
250,22.0,hard,prediction,Experiment 2 (test preview),4,visible,0.0,a,3.0,a,,3.0,0.0,0.0,0,1.0,6640.112999994017
250,22.0,hard,prediction,Experiment 2 (test preview),5,visible,3.0,a,0.0,b,,3.0,0.0,3.0,3,1.0,4593.481000000029
250,22.0,hard,prediction,Experiment 2 (test preview),6,visible,0.0,a,3.0,b,,2.0,1.0,2.0,2,1.0,8963.17399998213
250,22.0,hard,prediction,Experiment 2 (test preview),7,visible,3.0,b,2.0,a,,1.0,2.0,2.0,2,1.0,4642.428000000014
250,22.0,hard,prediction,Experiment 2 (test preview),8,hidden,3.0,a,,b,,2.0,3.0,3.0,2,0.0,5777.8719999881
250,22.0,hard,prediction,Experiment 2 (test preview),9,hidden,2.0,a,,b,,1.0,2.0,1.0,2,0.0,4908.315999994054
250,22.0,hard,prediction,Experiment 2 (test preview),10,hidden,1.0,b,,a,,3.0,2.0,2.0,3,0.0,9601.690999994054
250,22.0,hard,prediction,Experiment 2 (test preview),11,hidden,3.0,a,,a,,0.0,3.0,3.0,3,1.0,3248.010999988066
250,22.0,hard,prediction,Experiment 2 (test preview),12,hidden,3.0,b,,b,,1.0,3.0,1.0,3,0.0,3375.7550000000047
250,22.0,hard,prediction,Experiment 2 (test preview),13,visible,2.0,a,2.0,b,,0.0,3.0,0.0,0,1.0,4245.75900000002
250,22.0,hard,prediction,Experiment 2 (test preview),14,hidden,1.0,a,,a,,3.0,2.0,3.0,2,0.0,4277.613000000012
250,22.0,hard,prediction,Experiment 2 (test preview),15,hidden,2.0,a,,a,,2.0,3.0,2.0,2,1.0,5192.326999976183
250,22.0,hard,prediction,Experiment 2 (test preview),16,visible,0.0,b,3.0,a,,2.0,1.0,2.0,2,1.0,3841.613999982132
250,22.0,hard,prediction,Experiment 2 (test preview),17,visible,1.0,b,3.0,b,,3.0,0.0,3.0,3,1.0,4692.01399997616
250,22.0,hard,prediction,Experiment 2 (test preview),18,hidden,2.0,b,,b,,1.0,3.0,3.0,3,1.0,3355.0779999821098
250,22.0,hard,prediction,Experiment 2 (test preview),19,hidden,1.0,b,,a,,3.0,0.0,0.0,0,1.0,2878.0109999940614
250,22.0,hard,prediction,Experiment 2 (test preview),20,hidden,0.0,a,,a,,1.0,0.0,0.0,0,1.0,1467.0739999880898
253,22.0,hard,prediction,Experiment 2 (test preview),1,visible,2.0,a,2.0,b,,0.0,3.0,0.0,3,0.0,3392.6170000476995
253,22.0,hard,prediction,Experiment 2 (test preview),2,hidden,2.0,a,,b,,1.0,2.0,1.0,1,1.0,5646.682000047702
253,22.0,hard,prediction,Experiment 2 (test preview),3,visible,3.0,b,2.0,a,,1.0,2.0,2.0,2,1.0,4436.564000047685
253,22.0,hard,prediction,Experiment 2 (test preview),4,visible,0.0,a,3.0,b,,2.0,1.0,2.0,2,1.0,8270.359000047669
253,22.0,hard,prediction,Experiment 2 (test preview),5,hidden,3.0,a,,a,,0.0,3.0,3.0,0,0.0,8849.67600001191
253,22.0,hard,prediction,Experiment 2 (test preview),6,hidden,2.0,a,,a,,2.0,3.0,2.0,3,0.0,5687.128000023833
253,22.0,hard,prediction,Experiment 2 (test preview),7,visible,1.0,a,0.0,a,,3.0,0.0,3.0,3,1.0,7352.058000000019
253,22.0,hard,prediction,Experiment 2 (test preview),8,hidden,1.0,b,,a,,3.0,2.0,2.0,2,1.0,6200.421000035771
253,22.0,hard,prediction,Experiment 2 (test preview),9,hidden,3.0,a,,b,,2.0,3.0,3.0,2,0.0,11269.967000047676
253,22.0,hard,prediction,Experiment 2 (test preview),10,visible,1.0,b,3.0,b,,3.0,0.0,3.0,3,1.0,8613.455000023823
253,22.0,hard,prediction,Experiment 2 (test preview),11,hidden,1.0,b,,a,,3.0,0.0,0.0,0,1.0,9788.75300004764
253,22.0,hard,prediction,Experiment 2 (test preview),12,hidden,3.0,b,,b,,1.0,3.0,1.0,1,1.0,5283.749000047683
253,22.0,hard,prediction,Experiment 2 (test preview),13,hidden,1.0,a,,a,,3.0,2.0,3.0,2,0.0,4927.721999999951
253,22.0,hard,prediction,Experiment 2 (test preview),14,visible,0.0,b,3.0,a,,2.0,1.0,2.0,2,1.0,5199.123000000021
253,22.0,hard,prediction,Experiment 2 (test preview),15,visible,0.0,a,3.0,a,,3.0,0.0,0.0,3,0.0,5817.550000023795
253,22.0,hard,prediction,Experiment 2 (test preview),16,hidden,2.0,b,,b,,1.0,3.0,3.0,1,0.0,8480.550000000047
253,22.0,hard,prediction,Experiment 2 (test preview),17,hidden,0.0,a,,a,,1.0,0.0,0.0,1,0.0,9330.621000000045
253,22.0,hard,prediction,Experiment 2 (test preview),18,visible,2.0,b,1.0,b,,1.0,0.0,1.0,0,0.0,6012.927999999956
253,22.0,hard,prediction,Experiment 2 (test preview),19,visible,3.0,a,0.0,b,,3.0,0.0,3.0,3,1.0,8169.369000047678
253,22.0,hard,prediction,Experiment 2 (test preview),20,visible,2.0,b,1.0,a,,3.0,1.0,1.0,3,0.0,5585.0200000476325
251,22.0,hard,prediction,Experiment 2 (test preview),1,visible,2.0,b,1.0,a,,3.0,1.0,1.0,3,0.0,5201.585999952309
251,22.0,hard,prediction,Experiment 2 (test preview),2,hidden,1.0,a,,a,,3.0,2.0,3.0,2,0.0,6887.238000000012
251,22.0,hard,prediction,Experiment 2 (test preview),3,hidden,1.0,b,,a,,3.0,2.0,2.0,3,0.0,7665.247999952291
251,22.0,hard,prediction,Experiment 2 (test preview),4,hidden,3.0,a,,b,,2.0,3.0,3.0,3,1.0,4724.037000000011
251,22.0,hard,prediction,Experiment 2 (test preview),5,visible,0.0,a,3.0,b,,2.0,1.0,2.0,1,0.0,4131.877000023844
251,22.0,hard,prediction,Experiment 2 (test preview),6,hidden,2.0,a,,a,,2.0,3.0,2.0,2,1.0,3920.185999999987
251,22.0,hard,prediction,Experiment 2 (test preview),7,visible,1.0,b,3.0,b,,3.0,0.0,3.0,3,1.0,5372.921000023838
251,22.0,hard,prediction,Experiment 2 (test preview),8,visible,2.0,a,2.0,b,,0.0,3.0,0.0,0,1.0,6560.320000023814
251,22.0,hard,prediction,Experiment 2 (test preview),9,visible,3.0,a,0.0,b,,3.0,0.0,3.0,3,1.0,8180.577999952307
251,22.0,hard,prediction,Experiment 2 (test preview),10,visible,2.0,b,1.0,b,,1.0,0.0,1.0,1,1.0,4828.055999976175
251,22.0,hard,prediction,Experiment 2 (test preview),11,hidden,2.0,b,,b,,1.0,3.0,3.0,1,0.0,4988.969999999972
251,22.0,hard,prediction,Experiment 2 (test preview),12,hidden,2.0,a,,b,,1.0,2.0,1.0,1,1.0,2865.063000000024
251,22.0,hard,prediction,Experiment 2 (test preview),13,hidden,1.0,b,,a,,3.0,0.0,0.0,0,1.0,3015.948000047705
251,22.0,hard,prediction,Experiment 2 (test preview),14,hidden,3.0,a,,a,,0.0,3.0,3.0,3,1.0,4468.990000047663
251,22.0,hard,prediction,Experiment 2 (test preview),15,visible,0.0,a,3.0,a,,3.0,0.0,0.0,0,1.0,2674.239999976184
251,22.0,hard,prediction,Experiment 2 (test preview),16,visible,3.0,b,2.0,a,,1.0,2.0,2.0,1,0.0,1452.5080000238377
251,22.0,hard,prediction,Experiment 2 (test preview),17,hidden,0.0,a,,a,,1.0,0.0,0.0,0,1.0,2214.386000023864
251,22.0,hard,prediction,Experiment 2 (test preview),18,visible,1.0,a,0.0,a,,3.0,0.0,3.0,0,0.0,7690.883000047703
251,22.0,hard,prediction,Experiment 2 (test preview),19,visible,0.0,b,3.0,a,,2.0,1.0,2.0,2,1.0,3675.814999976137
251,22.0,hard,prediction,Experiment 2 (test preview),20,hidden,3.0,b,,b,,1.0,3.0,1.0,1,1.0,3034.9580000238493
252,22.0,hard,prediction,Experiment 2 (test preview),1,hidden,2.0,b,,b,,1.0,3.0,3.0,1,0.0,3302.8919999046484
252,22.0,hard,prediction,Experiment 2 (test preview),2,hidden,1.0,a,,a,,3.0,2.0,3.0,2,0.0,2653.5869999523275
252,22.0,hard,prediction,Experiment 2 (test preview),3,visible,0.0,a,3.0,a,,3.0,0.0,0.0,3,0.0,3855.682999976154
252,22.0,hard,prediction,Experiment 2 (test preview),4,hidden,1.0,b,,a,,3.0,2.0,2.0,3,0.0,3085.750999952317
252,22.0,hard,prediction,Experiment 2 (test preview),5,hidden,2.0,a,,b,,1.0,2.0,1.0,1,1.0,3314.3249999761465
252,22.0,hard,prediction,Experiment 2 (test preview),6,hidden,2.0,a,,a,,2.0,3.0,2.0,2,1.0,4118.728999976185
252,22.0,hard,prediction,Experiment 2 (test preview),7,visible,3.0,b,2.0,a,,1.0,2.0,2.0,1,0.0,7063.192999976163
252,22.0,hard,prediction,Experiment 2 (test preview),8,visible,0.0,a,3.0,b,,2.0,1.0,2.0,1,0.0,6796.819999976142
252,22.0,hard,prediction,Experiment 2 (test preview),9,visible,2.0,b,1.0,a,,3.0,1.0,1.0,3,0.0,5783.459999904619
252,22.0,hard,prediction,Experiment 2 (test preview),10,hidden,0.0,a,,a,,1.0,0.0,0.0,0,1.0,3667.082999952312
252,22.0,hard,prediction,Experiment 2 (test preview),11,hidden,3.0,a,,a,,0.0,3.0,3.0,0,0.0,5633.400999928475
252,22.0,hard,prediction,Experiment 2 (test preview),12,hidden,1.0,b,,a,,3.0,0.0,0.0,0,1.0,5325.250999999989
252,22.0,hard,prediction,Experiment 2 (test preview),13,visible,1.0,b,3.0,b,,3.0,0.0,3.0,3,1.0,6052.640999976138
252,22.0,hard,prediction,Experiment 2 (test preview),14,hidden,3.0,a,,b,,2.0,3.0,3.0,3,1.0,3895.076000000001
252,22.0,hard,prediction,Experiment 2 (test preview),15,visible,0.0,b,3.0,a,,2.0,1.0,2.0,1,0.0,1955.4619999284623
252,22.0,hard,prediction,Experiment 2 (test preview),16,hidden,3.0,b,,b,,1.0,3.0,1.0,1,1.0,2868.429999904649
252,22.0,hard,prediction,Experiment 2 (test preview),17,visible,3.0,a,0.0,b,,3.0,0.0,3.0,3,1.0,1815.2980000000096
252,22.0,hard,prediction,Experiment 2 (test preview),18,visible,2.0,b,1.0,b,,1.0,0.0,1.0,0,0.0,3360.4829999523354
252,22.0,hard,prediction,Experiment 2 (test preview),19,visible,1.0,a,0.0,a,,3.0,0.0,3.0,0,0.0,3580.527000000002
252,22.0,hard,prediction,Experiment 2 (test preview),20,visible,2.0,a,2.0,b,,0.0,3.0,0.0,0,1.0,2243.087999928452
254,22.0,hard,prediction,Experiment 2 (test preview),1,hidden,0.0,a,,a,,1.0,0.0,0.0,1,0.0,6186.369999999995
254,22.0,hard,prediction,Experiment 2 (test preview),2,hidden,3.0,b,,b,,1.0,3.0,1.0,1,1.0,14597.49900000001
254,22.0,hard,prediction,Experiment 2 (test preview),3,hidden,2.0,a,,b,,1.0,2.0,1.0,1,1.0,5407.340000000026
254,22.0,hard,prediction,Experiment 2 (test preview),4,visible,3.0,a,0.0,b,,3.0,0.0,3.0,0,0.0,9747.146000000008
254,22.0,hard,prediction,Experiment 2 (test preview),5,hidden,1.0,b,,a,,3.0,0.0,0.0,0,1.0,1762.8829999999723
254,22.0,hard,prediction,Experiment 2 (test preview),6,hidden,2.0,b,,b,,1.0,3.0,3.0,1,0.0,5469.488000023819
254,22.0,hard,prediction,Experiment 2 (test preview),7,visible,2.0,b,1.0,a,,3.0,1.0,1.0,3,0.0,2301.8580000000075
254,22.0,hard,prediction,Experiment 2 (test preview),8,hidden,3.0,a,,a,,0.0,3.0,3.0,0,0.0,5040.608999999997
254,22.0,hard,prediction,Experiment 2 (test preview),9,visible,1.0,b,3.0,b,,3.0,0.0,3.0,3,1.0,3429.5050000000047
254,22.0,hard,prediction,Experiment 2 (test preview),10,hidden,1.0,b,,a,,3.0,2.0,2.0,2,1.0,4228.468000023859
254,22.0,hard,prediction,Experiment 2 (test preview),11,visible,0.0,b,3.0,a,,2.0,1.0,2.0,2,1.0,12805.717000000004
254,22.0,hard,prediction,Experiment 2 (test preview),12,visible,0.0,a,3.0,a,,3.0,0.0,0.0,0,1.0,4454.069000000018
254,22.0,hard,prediction,Experiment 2 (test preview),13,visible,0.0,a,3.0,b,,2.0,1.0,2.0,1,0.0,1664.262000023853
254,22.0,hard,prediction,Experiment 2 (test preview),14,visible,1.0,a,0.0,a,,3.0,0.0,3.0,3,1.0,2746.8240000000224
254,22.0,hard,prediction,Experiment 2 (test preview),15,visible,3.0,b,2.0,a,,1.0,2.0,2.0,2,1.0,5609.146000000008
254,22.0,hard,prediction,Experiment 2 (test preview),16,hidden,3.0,a,,b,,2.0,3.0,3.0,2,0.0,3579.543000000005
254,22.0,hard,prediction,Experiment 2 (test preview),17,visible,2.0,a,2.0,b,,0.0,3.0,0.0,0,1.0,2872.6970000238507
254,22.0,hard,prediction,Experiment 2 (test preview),18,visible,2.0,b,1.0,b,,1.0,0.0,1.0,1,1.0,797.1120000000228
254,22.0,hard,prediction,Experiment 2 (test preview),19,hidden,2.0,a,,a,,2.0,3.0,2.0,3,0.0,6483.877000023844
254,22.0,hard,prediction,Experiment 2 (test preview),20,hidden,1.0,a,,a,,3.0,2.0,3.0,3,1.0,2603.2430000000168
256,22.0,hard,prediction,Experiment 2 (test preview),1,visible,1.0,a,0.0,a,,3.0,0.0,3.0,3,1.0,4010.712
256,22.0,hard,prediction,Experiment 2 (test preview),2,visible,0.0,a,3.0,b,,2.0,1.0,2.0,1,0.0,5858.082000001101
256,22.0,hard,prediction,Experiment 2 (test preview),3,visible,3.0,b,2.0,a,,1.0,2.0,2.0,2,1.0,1459.6860000003944
256,22.0,hard,prediction,Experiment 2 (test preview),4,visible,2.0,a,2.0,b,,0.0,3.0,0.0,3,0.0,6072.739000000351
256,22.0,hard,prediction,Experiment 2 (test preview),5,hidden,1.0,b,,a,,3.0,2.0,2.0,2,1.0,6553.347999999649
256,22.0,hard,prediction,Experiment 2 (test preview),6,hidden,1.0,b,,a,,3.0,0.0,0.0,0,1.0,7112.456999999995
256,22.0,hard,prediction,Experiment 2 (test preview),7,visible,3.0,a,0.0,b,,3.0,0.0,3.0,3,1.0,12683.094999999972
256,22.0,hard,prediction,Experiment 2 (test preview),8,hidden,2.0,a,,a,,2.0,3.0,2.0,2,1.0,1805.6399999996063
256,22.0,hard,prediction,Experiment 2 (test preview),9,visible,2.0,b,1.0,b,,1.0,0.0,1.0,0,0.0,3697.66200000036
256,22.0,hard,prediction,Experiment 2 (test preview),10,visible,1.0,b,3.0,b,,3.0,0.0,3.0,0,0.0,7818.208000000392
256,22.0,hard,prediction,Experiment 2 (test preview),11,visible,0.0,b,3.0,a,,2.0,1.0,2.0,2,1.0,763.8459999996121
256,22.0,hard,prediction,Experiment 2 (test preview),12,visible,0.0,a,3.0,a,,3.0,0.0,0.0,0,1.0,11092.30400000111
256,22.0,hard,prediction,Experiment 2 (test preview),13,hidden,3.0,a,,b,,2.0,3.0,3.0,2,0.0,4567.656000000774
256,22.0,hard,prediction,Experiment 2 (test preview),14,hidden,3.0,b,,b,,1.0,3.0,1.0,3,0.0,9906.963000000396
256,22.0,hard,prediction,Experiment 2 (test preview),15,visible,2.0,b,1.0,a,,3.0,1.0,1.0,1,1.0,9228.222000000009
256,22.0,hard,prediction,Experiment 2 (test preview),16,hidden,3.0,a,,a,,0.0,3.0,3.0,0,0.0,10274.12500000035
256,22.0,hard,prediction,Experiment 2 (test preview),17,hidden,2.0,b,,b,,1.0,3.0,3.0,1,0.0,4424.841000000364
256,22.0,hard,prediction,Experiment 2 (test preview),18,hidden,2.0,a,,b,,1.0,2.0,1.0,1,1.0,12251.598999999987
256,22.0,hard,prediction,Experiment 2 (test preview),19,hidden,1.0,a,,a,,3.0,2.0,3.0,2,0.0,1666.2440000003553
256,22.0,hard,prediction,Experiment 2 (test preview),20,hidden,0.0,a,,a,,1.0,0.0,0.0,1,0.0,9819.38900000113
267,22.0,hard,prediction,Experiment 2 (test preview),1,hidden,1.0,b,,a,,3.0,0.0,0.0,0,1.0,4343.082999999984
267,22.0,hard,prediction,Experiment 2 (test preview),2,visible,2.0,a,2.0,b,,0.0,3.0,0.0,0,1.0,2348.6660000011325
267,22.0,hard,prediction,Experiment 2 (test preview),3,hidden,2.0,a,,a,,2.0,3.0,2.0,2,1.0,3364.0730000003823
267,22.0,hard,prediction,Experiment 2 (test preview),4,hidden,2.0,b,,b,,1.0,3.0,3.0,3,1.0,2150.5650000000023
267,22.0,hard,prediction,Experiment 2 (test preview),5,hidden,2.0,a,,b,,1.0,2.0,1.0,2,0.0,4179.498000001127
267,22.0,hard,prediction,Experiment 2 (test preview),6,visible,1.0,a,0.0,a,,3.0,0.0,3.0,3,1.0,1960.2849999999744
267,22.0,hard,prediction,Experiment 2 (test preview),7,hidden,0.0,a,,a,,1.0,0.0,0.0,1,0.0,3217.381999999634
267,22.0,hard,prediction,Experiment 2 (test preview),8,hidden,3.0,a,,a,,0.0,3.0,3.0,3,1.0,2186.878000000725
267,22.0,hard,prediction,Experiment 2 (test preview),9,hidden,3.0,a,,b,,2.0,3.0,3.0,2,0.0,4896.281000000425
267,22.0,hard,prediction,Experiment 2 (test preview),10,visible,1.0,b,3.0,b,,3.0,0.0,3.0,0,0.0,2107.1960000006948
267,22.0,hard,prediction,Experiment 2 (test preview),11,visible,0.0,a,3.0,b,,2.0,1.0,2.0,2,1.0,1083.4599999996135
267,22.0,hard,prediction,Experiment 2 (test preview),12,visible,3.0,b,2.0,a,,1.0,2.0,2.0,1,0.0,2636.9210000003222
267,22.0,hard,prediction,Experiment 2 (test preview),13,hidden,1.0,b,,a,,3.0,2.0,2.0,2,1.0,1801.2430000010645
267,22.0,hard,prediction,Experiment 2 (test preview),14,hidden,1.0,a,,a,,3.0,2.0,3.0,3,1.0,1967.8410000007132
267,22.0,hard,prediction,Experiment 2 (test preview),15,visible,0.0,b,3.0,a,,2.0,1.0,2.0,1,0.0,2171.2270000011194
267,22.0,hard,prediction,Experiment 2 (test preview),16,visible,0.0,a,3.0,a,,3.0,0.0,0.0,3,0.0,1938.5240000007907
267,22.0,hard,prediction,Experiment 2 (test preview),17,visible,2.0,b,1.0,b,,1.0,0.0,1.0,1,1.0,1170.8050000007495
267,22.0,hard,prediction,Experiment 2 (test preview),18,visible,2.0,b,1.0,a,,3.0,1.0,1.0,1,1.0,1099.0810000011695
267,22.0,hard,prediction,Experiment 2 (test preview),19,hidden,3.0,b,,b,,1.0,3.0,1.0,3,0.0,1392.963000001153
267,22.0,hard,prediction,Experiment 2 (test preview),20,visible,3.0,a,0.0,b,,3.0,0.0,3.0,0,0.0,1656.4509999996517
255,22.0,hard,prediction,Experiment 2 (test preview),1,visible,1.0,b,3.0,b,,3.0,0.0,3.0,3,1.0,3253.8480000357667
255,22.0,hard,prediction,Experiment 2 (test preview),2,hidden,3.0,a,,a,,0.0,3.0,3.0,3,1.0,3396.0099999880767
255,22.0,hard,prediction,Experiment 2 (test preview),3,visible,0.0,a,3.0,a,,3.0,0.0,0.0,3,0.0,5430.855000023847
255,22.0,hard,prediction,Experiment 2 (test preview),4,hidden,1.0,b,,a,,3.0,0.0,0.0,0,1.0,1657.745000011928
255,22.0,hard,prediction,Experiment 2 (test preview),5,hidden,2.0,a,,b,,1.0,2.0,1.0,2,0.0,3401.77500002383
255,22.0,hard,prediction,Experiment 2 (test preview),6,visible,3.0,b,2.0,a,,1.0,2.0,2.0,2,1.0,4097.432000023837
255,22.0,hard,prediction,Experiment 2 (test preview),7,visible,0.0,b,3.0,a,,2.0,1.0,2.0,2,1.0,2366.613000023848
255,22.0,hard,prediction,Experiment 2 (test preview),8,hidden,1.0,b,,a,,3.0,2.0,2.0,2,1.0,3444.323000035773
255,22.0,hard,prediction,Experiment 2 (test preview),9,hidden,2.0,b,,b,,1.0,3.0,3.0,1,0.0,6477.949000011897
255,22.0,hard,prediction,Experiment 2 (test preview),10,hidden,1.0,a,,a,,3.0,2.0,3.0,2,0.0,7874.549000023864
255,22.0,hard,prediction,Experiment 2 (test preview),11,hidden,2.0,a,,a,,2.0,3.0,2.0,2,1.0,3042.020000035758
255,22.0,hard,prediction,Experiment 2 (test preview),12,visible,3.0,a,0.0,b,,3.0,0.0,3.0,0,0.0,3022.7890000119223
255,22.0,hard,prediction,Experiment 2 (test preview),13,visible,2.0,a,2.0,b,,0.0,3.0,0.0,3,0.0,2209.4800000238465
255,22.0,hard,prediction,Experiment 2 (test preview),14,visible,0.0,a,3.0,b,,2.0,1.0,2.0,1,0.0,4965.899000011908
255,22.0,hard,prediction,Experiment 2 (test preview),15,hidden,3.0,a,,b,,2.0,3.0,3.0,3,1.0,2684.1240000238176
255,22.0,hard,prediction,Experiment 2 (test preview),16,hidden,0.0,a,,a,,1.0,0.0,0.0,0,1.0,3177.5999999881024
255,22.0,hard,prediction,Experiment 2 (test preview),17,visible,2.0,b,1.0,b,,1.0,0.0,1.0,1,1.0,2926.7370000238298
255,22.0,hard,prediction,Experiment 2 (test preview),18,visible,2.0,b,1.0,a,,3.0,1.0,1.0,3,0.0,2450.6080000238144
255,22.0,hard,prediction,Experiment 2 (test preview),19,hidden,3.0,b,,b,,1.0,3.0,1.0,3,0.0,928.1780000238214
255,22.0,hard,prediction,Experiment 2 (test preview),20,visible,1.0,a,0.0,a,,3.0,0.0,3.0,3,1.0,1595.1889999880805
259,22.0,hard,prediction,Experiment 2 (test preview),1,visible,3.0,b,2.0,a,,1.0,2.0,2.0,2,1.0,5563.016999999993
259,22.0,hard,prediction,Experiment 2 (test preview),2,visible,0.0,b,3.0,a,,2.0,1.0,2.0,2,1.0,4813.338999999978
259,22.0,hard,prediction,Experiment 2 (test preview),3,visible,2.0,b,1.0,a,,3.0,1.0,1.0,1,1.0,3988.3219999999856
259,22.0,hard,prediction,Experiment 2 (test preview),4,hidden,1.0,a,,a,,3.0,2.0,3.0,2,0.0,3032.7309999999707
259,22.0,hard,prediction,Experiment 2 (test preview),5,hidden,0.0,a,,a,,1.0,0.0,0.0,1,0.0,1435.3180000000284
259,22.0,hard,prediction,Experiment 2 (test preview),6,visible,1.0,a,0.0,a,,3.0,0.0,3.0,0,0.0,1594.9810000000289
259,22.0,hard,prediction,Experiment 2 (test preview),7,hidden,1.0,b,,a,,3.0,2.0,2.0,2,1.0,1895.2339999999967
259,22.0,hard,prediction,Experiment 2 (test preview),8,hidden,2.0,a,,a,,2.0,3.0,2.0,3,0.0,2627.296000000031
259,22.0,hard,prediction,Experiment 2 (test preview),9,hidden,3.0,a,,a,,0.0,3.0,3.0,3,1.0,4081.7360000000335
259,22.0,hard,prediction,Experiment 2 (test preview),10,hidden,3.0,a,,b,,2.0,3.0,3.0,2,0.0,5479.828000000038
259,22.0,hard,prediction,Experiment 2 (test preview),11,visible,0.0,a,3.0,b,,2.0,1.0,2.0,2,1.0,2829.692000000039
259,22.0,hard,prediction,Experiment 2 (test preview),12,hidden,2.0,b,,b,,1.0,3.0,3.0,3,1.0,2968.931999999972
259,22.0,hard,prediction,Experiment 2 (test preview),13,visible,0.0,a,3.0,a,,3.0,0.0,0.0,0,1.0,9337.005000000005
259,22.0,hard,prediction,Experiment 2 (test preview),14,visible,3.0,a,0.0,b,,3.0,0.0,3.0,3,1.0,1421.2369999999646
259,22.0,hard,prediction,Experiment 2 (test preview),15,hidden,1.0,b,,a,,3.0,0.0,0.0,0,1.0,1107.2329999999492
259,22.0,hard,prediction,Experiment 2 (test preview),16,visible,1.0,b,3.0,b,,3.0,0.0,3.0,3,1.0,1152.0489999999409
259,22.0,hard,prediction,Experiment 2 (test preview),17,hidden,2.0,a,,b,,1.0,2.0,1.0,1,1.0,1442.7089999999737
259,22.0,hard,prediction,Experiment 2 (test preview),18,hidden,3.0,b,,b,,1.0,3.0,1.0,3,0.0,944.8789999999572
259,22.0,hard,prediction,Experiment 2 (test preview),19,visible,2.0,b,1.0,b,,1.0,0.0,1.0,1,1.0,1203.8139999999548
259,22.0,hard,prediction,Experiment 2 (test preview),20,visible,2.0,a,2.0,b,,0.0,3.0,0.0,3,0.0,1675.3139999999548
257,22.0,hard,prediction,Experiment 2 (test preview),1,hidden,2.0,a,,a,,2.0,3.0,2.0,2,1.0,3430.1710000357707
257,22.0,hard,prediction,Experiment 2 (test preview),2,hidden,3.0,a,,a,,0.0,3.0,3.0,3,1.0,2725.9349999999977
257,22.0,hard,prediction,Experiment 2 (test preview),3,hidden,1.0,a,,a,,3.0,2.0,3.0,3,1.0,3060.555999988079
257,22.0,hard,prediction,Experiment 2 (test preview),4,hidden,1.0,b,,a,,3.0,2.0,2.0,2,1.0,9221.32700003576
257,22.0,hard,prediction,Experiment 2 (test preview),5,visible,2.0,b,1.0,a,,3.0,1.0,1.0,1,1.0,1376.2670000357612
257,22.0,hard,prediction,Experiment 2 (test preview),6,visible,2.0,b,1.0,b,,1.0,0.0,1.0,1,1.0,1654.5650000357418
257,22.0,hard,prediction,Experiment 2 (test preview),7,hidden,3.0,a,,b,,2.0,3.0,3.0,3,1.0,2371.99099999998
257,22.0,hard,prediction,Experiment 2 (test preview),8,hidden,3.0,b,,b,,1.0,3.0,1.0,3,0.0,2357.183000023826
257,22.0,hard,prediction,Experiment 2 (test preview),9,hidden,0.0,a,,a,,1.0,0.0,0.0,1,0.0,2212.4309999999823
257,22.0,hard,prediction,Experiment 2 (test preview),10,hidden,2.0,b,,b,,1.0,3.0,3.0,3,1.0,892.6090000238619
257,22.0,hard,prediction,Experiment 2 (test preview),11,visible,3.0,a,0.0,b,,3.0,0.0,3.0,0,0.0,2200.8840000118944
257,22.0,hard,prediction,Experiment 2 (test preview),12,visible,0.0,a,3.0,a,,3.0,0.0,0.0,3,0.0,1298.4110000238288
257,22.0,hard,prediction,Experiment 2 (test preview),13,visible,1.0,a,0.0,a,,3.0,0.0,3.0,0,0.0,1333.011999988055
257,22.0,hard,prediction,Experiment 2 (test preview),14,visible,0.0,b,3.0,a,,2.0,1.0,2.0,2,1.0,762.3040000238689
257,22.0,hard,prediction,Experiment 2 (test preview),15,visible,0.0,a,3.0,b,,2.0,1.0,2.0,1,0.0,767.0930000238586
257,22.0,hard,prediction,Experiment 2 (test preview),16,hidden,1.0,b,,a,,3.0,0.0,0.0,3,0.0,765.5860000000102
257,22.0,hard,prediction,Experiment 2 (test preview),17,visible,1.0,b,3.0,b,,3.0,0.0,3.0,0,0.0,1624.8460000238265
257,22.0,hard,prediction,Experiment 2 (test preview),18,hidden,2.0,a,,b,,1.0,2.0,1.0,2,0.0,1577.3389999881038
257,22.0,hard,prediction,Experiment 2 (test preview),19,visible,3.0,b,2.0,a,,1.0,2.0,2.0,2,1.0,3856.38000002387
257,22.0,hard,prediction,Experiment 2 (test preview),20,visible,2.0,a,2.0,b,,0.0,3.0,0.0,3,0.0,2072.648000035784
260,22.0,hard,prediction,Experiment 2 (test preview),1,hidden,3.0,a,,b,,2.0,3.0,3.0,3,1.0,2562.0
260,22.0,hard,prediction,Experiment 2 (test preview),2,hidden,2.0,a,,a,,2.0,3.0,2.0,2,1.0,1930.0
260,22.0,hard,prediction,Experiment 2 (test preview),3,visible,2.0,b,1.0,b,,1.0,0.0,1.0,1,1.0,2812.0
260,22.0,hard,prediction,Experiment 2 (test preview),4,hidden,1.0,b,,a,,3.0,2.0,2.0,2,1.0,1783.0
260,22.0,hard,prediction,Experiment 2 (test preview),5,hidden,1.0,b,,a,,3.0,0.0,0.0,3,0.0,2340.0
260,22.0,hard,prediction,Experiment 2 (test preview),6,hidden,2.0,b,,b,,1.0,3.0,3.0,1,0.0,2497.0
260,22.0,hard,prediction,Experiment 2 (test preview),7,visible,0.0,a,3.0,b,,2.0,1.0,2.0,1,0.0,2917.0
260,22.0,hard,prediction,Experiment 2 (test preview),8,hidden,3.0,b,,b,,1.0,3.0,1.0,1,1.0,3934.0
260,22.0,hard,prediction,Experiment 2 (test preview),9,visible,2.0,a,2.0,b,,0.0,3.0,0.0,3,0.0,4153.0
260,22.0,hard,prediction,Experiment 2 (test preview),10,visible,2.0,b,1.0,a,,3.0,1.0,1.0,3,0.0,4370.0
260,22.0,hard,prediction,Experiment 2 (test preview),11,visible,0.0,b,3.0,a,,2.0,1.0,2.0,2,1.0,2295.0
260,22.0,hard,prediction,Experiment 2 (test preview),12,hidden,2.0,a,,b,,1.0,2.0,1.0,1,1.0,3535.0
260,22.0,hard,prediction,Experiment 2 (test preview),13,visible,0.0,a,3.0,a,,3.0,0.0,0.0,3,0.0,1686.0
260,22.0,hard,prediction,Experiment 2 (test preview),14,hidden,3.0,a,,a,,0.0,3.0,3.0,3,1.0,1919.0
260,22.0,hard,prediction,Experiment 2 (test preview),15,visible,1.0,a,0.0,a,,3.0,0.0,3.0,0,0.0,2519.0
260,22.0,hard,prediction,Experiment 2 (test preview),16,visible,1.0,b,3.0,b,,3.0,0.0,3.0,3,1.0,1596.0
260,22.0,hard,prediction,Experiment 2 (test preview),17,hidden,0.0,a,,a,,1.0,0.0,0.0,0,1.0,3844.0
260,22.0,hard,prediction,Experiment 2 (test preview),18,hidden,1.0,a,,a,,3.0,2.0,3.0,2,0.0,2854.0
260,22.0,hard,prediction,Experiment 2 (test preview),19,visible,3.0,a,0.0,b,,3.0,0.0,3.0,3,1.0,4602.0
260,22.0,hard,prediction,Experiment 2 (test preview),20,visible,3.0,b,2.0,a,,1.0,2.0,2.0,2,1.0,3522.0
258,22.0,hard,prediction,Experiment 2 (test preview),1,hidden,3.0,a,,a,,0.0,3.0,3.0,0,0.0,4747.956000047678
258,22.0,hard,prediction,Experiment 2 (test preview),2,visible,2.0,a,2.0,b,,0.0,3.0,0.0,3,0.0,3581.73800007152
258,22.0,hard,prediction,Experiment 2 (test preview),3,visible,0.0,b,3.0,a,,2.0,1.0,2.0,2,1.0,2779.2300000000105
258,22.0,hard,prediction,Experiment 2 (test preview),4,visible,0.0,a,3.0,a,,3.0,0.0,0.0,3,0.0,5409.9499999761465
258,22.0,hard,prediction,Experiment 2 (test preview),5,visible,2.0,b,1.0,a,,3.0,1.0,1.0,3,0.0,3394.488000047684
258,22.0,hard,prediction,Experiment 2 (test preview),6,visible,1.0,b,3.0,b,,3.0,0.0,3.0,0,0.0,5889.639000047697
258,22.0,hard,prediction,Experiment 2 (test preview),7,visible,1.0,a,0.0,a,,3.0,0.0,3.0,3,1.0,4105.571000023832
258,22.0,hard,prediction,Experiment 2 (test preview),8,hidden,3.0,a,,b,,2.0,3.0,3.0,2,0.0,961.5100000238454
258,22.0,hard,prediction,Experiment 2 (test preview),9,hidden,2.0,a,,b,,1.0,2.0,1.0,1,1.0,2693.691999976145
258,22.0,hard,prediction,Experiment 2 (test preview),10,hidden,0.0,a,,a,,1.0,0.0,0.0,1,0.0,2525.0650000000023
258,22.0,hard,prediction,Experiment 2 (test preview),11,hidden,3.0,b,,b,,1.0,3.0,1.0,1,1.0,2764.575000047684
258,22.0,hard,prediction,Experiment 2 (test preview),12,hidden,1.0,b,,a,,3.0,2.0,2.0,2,1.0,678.1719999761553
258,22.0,hard,prediction,Experiment 2 (test preview),13,hidden,2.0,b,,b,,1.0,3.0,3.0,3,1.0,1544.8450000715093
258,22.0,hard,prediction,Experiment 2 (test preview),14,hidden,1.0,b,,a,,3.0,0.0,0.0,0,1.0,2550.591000071552
258,22.0,hard,prediction,Experiment 2 (test preview),15,visible,3.0,a,0.0,b,,3.0,0.0,3.0,0,0.0,2103.418000047677
258,22.0,hard,prediction,Experiment 2 (test preview),16,visible,2.0,b,1.0,b,,1.0,0.0,1.0,0,0.0,1413.639000000025
258,22.0,hard,prediction,Experiment 2 (test preview),17,hidden,1.0,a,,a,,3.0,2.0,3.0,2,0.0,1361.5479999761446
258,22.0,hard,prediction,Experiment 2 (test preview),18,visible,3.0,b,2.0,a,,1.0,2.0,2.0,2,1.0,619.3310000476777
258,22.0,hard,prediction,Experiment 2 (test preview),19,visible,0.0,a,3.0,b,,2.0,1.0,2.0,1,0.0,3204.941000047664
258,22.0,hard,prediction,Experiment 2 (test preview),20,hidden,2.0,a,,a,,2.0,3.0,2.0,2,1.0,984.2010000000008
263,22.0,hard,prediction,Experiment 2 (test preview),1,visible,0.0,b,3.0,a,,2.0,1.0,2.0,2,1.0,5955.219999999972
263,22.0,hard,prediction,Experiment 2 (test preview),2,visible,0.0,a,3.0,a,,3.0,0.0,0.0,0,1.0,11446.23999999999
263,22.0,hard,prediction,Experiment 2 (test preview),3,visible,0.0,a,3.0,b,,2.0,1.0,2.0,1,0.0,8908.979999999981
263,22.0,hard,prediction,Experiment 2 (test preview),4,visible,1.0,a,0.0,a,,3.0,0.0,3.0,3,1.0,6147.280000000028
263,22.0,hard,prediction,Experiment 2 (test preview),5,hidden,3.0,b,,b,,1.0,3.0,1.0,3,0.0,13582.73999999999
263,22.0,hard,prediction,Experiment 2 (test preview),6,hidden,3.0,a,,b,,2.0,3.0,3.0,2,0.0,5591.179999999993
263,22.0,hard,prediction,Experiment 2 (test preview),7,visible,2.0,a,2.0,b,,0.0,3.0,0.0,0,1.0,4284.580000000016
263,22.0,hard,prediction,Experiment 2 (test preview),8,visible,3.0,a,0.0,b,,3.0,0.0,3.0,3,1.0,4733.5
263,22.0,hard,prediction,Experiment 2 (test preview),9,hidden,2.0,a,,a,,2.0,3.0,2.0,3,0.0,3352.8400000000256
263,22.0,hard,prediction,Experiment 2 (test preview),10,hidden,3.0,a,,a,,0.0,3.0,3.0,0,0.0,16383.580000000016
263,22.0,hard,prediction,Experiment 2 (test preview),11,hidden,1.0,b,,a,,3.0,2.0,2.0,2,1.0,7041.960000000021
263,22.0,hard,prediction,Experiment 2 (test preview),12,visible,2.0,b,1.0,b,,1.0,0.0,1.0,0,0.0,4085.0999999999767
263,22.0,hard,prediction,Experiment 2 (test preview),13,hidden,2.0,b,,b,,1.0,3.0,3.0,1,0.0,3047.6599999999744
263,22.0,hard,prediction,Experiment 2 (test preview),14,hidden,1.0,b,,a,,3.0,0.0,0.0,0,1.0,1953.460000000021
263,22.0,hard,prediction,Experiment 2 (test preview),15,hidden,0.0,a,,a,,1.0,0.0,0.0,1,0.0,4295.700000000012
263,22.0,hard,prediction,Experiment 2 (test preview),16,hidden,2.0,a,,b,,1.0,2.0,1.0,1,1.0,2449.3800000000047
263,22.0,hard,prediction,Experiment 2 (test preview),17,visible,1.0,b,3.0,b,,3.0,0.0,3.0,0,0.0,7167.119999999995
263,22.0,hard,prediction,Experiment 2 (test preview),18,hidden,1.0,a,,a,,3.0,2.0,3.0,3,1.0,5185.119999999995
263,22.0,hard,prediction,Experiment 2 (test preview),19,visible,3.0,b,2.0,a,,1.0,2.0,2.0,1,0.0,2563.619999999996
263,22.0,hard,prediction,Experiment 2 (test preview),20,visible,2.0,b,1.0,a,,3.0,1.0,1.0,3,0.0,2177.3800000000047
261,22.0,hard,prediction,Experiment 2 (test preview),1,hidden,2.0,b,,b,,1.0,3.0,3.0,1,0.0,2634.848999964248
261,22.0,hard,prediction,Experiment 2 (test preview),2,visible,2.0,b,1.0,a,,3.0,1.0,1.0,1,1.0,3001.4399999880698
261,22.0,hard,prediction,Experiment 2 (test preview),3,hidden,1.0,a,,a,,3.0,2.0,3.0,3,1.0,3231.6579999642563
261,22.0,hard,prediction,Experiment 2 (test preview),4,hidden,1.0,b,,a,,3.0,0.0,0.0,0,1.0,4197.548999952327
261,22.0,hard,prediction,Experiment 2 (test preview),5,hidden,0.0,a,,a,,1.0,0.0,0.0,1,0.0,823.0809999642661
261,22.0,hard,prediction,Experiment 2 (test preview),6,hidden,3.0,b,,b,,1.0,3.0,1.0,1,1.0,2299.9479999881005
261,22.0,hard,prediction,Experiment 2 (test preview),7,hidden,3.0,a,,a,,0.0,3.0,3.0,0,0.0,2044.3549999642416
261,22.0,hard,prediction,Experiment 2 (test preview),8,hidden,2.0,a,,b,,1.0,2.0,1.0,1,1.0,2058.1309999880614
261,22.0,hard,prediction,Experiment 2 (test preview),9,visible,3.0,b,2.0,a,,1.0,2.0,2.0,1,0.0,2805.802999988082
261,22.0,hard,prediction,Experiment 2 (test preview),10,visible,0.0,a,3.0,b,,2.0,1.0,2.0,2,1.0,2769.356000000029
261,22.0,hard,prediction,Experiment 2 (test preview),11,hidden,3.0,a,,b,,2.0,3.0,3.0,2,0.0,2204.012999988103
261,22.0,hard,prediction,Experiment 2 (test preview),12,visible,1.0,b,3.0,b,,3.0,0.0,3.0,0,0.0,930.8449999642326
261,22.0,hard,prediction,Experiment 2 (test preview),13,visible,0.0,a,3.0,a,,3.0,0.0,0.0,3,0.0,3981.135000000009
261,22.0,hard,prediction,Experiment 2 (test preview),14,hidden,2.0,a,,a,,2.0,3.0,2.0,3,0.0,1577.9219999522902
261,22.0,hard,prediction,Experiment 2 (test preview),15,visible,0.0,b,3.0,a,,2.0,1.0,2.0,1,0.0,1079.522999964247
261,22.0,hard,prediction,Experiment 2 (test preview),16,visible,2.0,b,1.0,b,,1.0,0.0,1.0,1,1.0,994.7619999880552
261,22.0,hard,prediction,Experiment 2 (test preview),17,hidden,1.0,b,,a,,3.0,2.0,2.0,3,0.0,1965.2009999880684
261,22.0,hard,prediction,Experiment 2 (test preview),18,visible,2.0,a,2.0,b,,0.0,3.0,0.0,0,1.0,3706.3959999880753
261,22.0,hard,prediction,Experiment 2 (test preview),19,visible,1.0,a,0.0,a,,3.0,0.0,3.0,3,1.0,2052.170999952301
261,22.0,hard,prediction,Experiment 2 (test preview),20,visible,3.0,a,0.0,b,,3.0,0.0,3.0,3,1.0,2156.155000000028
264,22.0,hard,prediction,Experiment 2 (test preview),1,hidden,2.0,a,,a,,2.0,3.0,2.0,2,1.0,10245.161999998498
264,22.0,hard,prediction,Experiment 2 (test preview),2,visible,3.0,b,2.0,a,,1.0,2.0,2.0,2,1.0,2368.2919999985024
264,22.0,hard,prediction,Experiment 2 (test preview),3,hidden,2.0,a,,b,,1.0,2.0,1.0,2,0.0,2125.13400000002
264,22.0,hard,prediction,Experiment 2 (test preview),4,hidden,3.0,a,,b,,2.0,3.0,3.0,3,1.0,16648.905999998504
264,22.0,hard,prediction,Experiment 2 (test preview),5,hidden,0.0,a,,a,,1.0,0.0,0.0,1,0.0,2658.2799999985145
264,22.0,hard,prediction,Experiment 2 (test preview),6,visible,2.0,b,1.0,b,,1.0,0.0,1.0,1,1.0,3216.6479999985318
264,22.0,hard,prediction,Experiment 2 (test preview),7,visible,3.0,a,0.0,b,,3.0,0.0,3.0,0,0.0,5003.510000000009
264,22.0,hard,prediction,Experiment 2 (test preview),8,hidden,1.0,b,,a,,3.0,0.0,0.0,3,0.0,5431.934000000008
264,22.0,hard,prediction,Experiment 2 (test preview),9,visible,2.0,a,2.0,b,,0.0,3.0,0.0,3,0.0,1763.9099999985192
264,22.0,hard,prediction,Experiment 2 (test preview),10,hidden,3.0,a,,a,,0.0,3.0,3.0,0,0.0,2936.6369999985327
264,22.0,hard,prediction,Experiment 2 (test preview),11,visible,2.0,b,1.0,a,,3.0,1.0,1.0,3,0.0,6608.740999998525
264,22.0,hard,prediction,Experiment 2 (test preview),12,hidden,2.0,b,,b,,1.0,3.0,3.0,3,1.0,4262.934999999241
264,22.0,hard,prediction,Experiment 2 (test preview),13,visible,1.0,a,0.0,a,,3.0,0.0,3.0,0,0.0,4236.43900000077
264,22.0,hard,prediction,Experiment 2 (test preview),14,visible,0.0,a,3.0,a,,3.0,0.0,0.0,3,0.0,4831.521000000765
264,22.0,hard,prediction,Experiment 2 (test preview),15,visible,0.0,b,3.0,a,,2.0,1.0,2.0,1,0.0,3912.65899999853
264,22.0,hard,prediction,Experiment 2 (test preview),16,visible,1.0,b,3.0,b,,3.0,0.0,3.0,3,1.0,5672.341000000772
264,22.0,hard,prediction,Experiment 2 (test preview),17,hidden,1.0,b,,a,,3.0,2.0,2.0,2,1.0,5297.104000000749
264,22.0,hard,prediction,Experiment 2 (test preview),18,hidden,3.0,b,,b,,1.0,3.0,1.0,3,0.0,4736.566000000748
264,22.0,hard,prediction,Experiment 2 (test preview),19,hidden,1.0,a,,a,,3.0,2.0,3.0,2,0.0,4035.49399999925
264,22.0,hard,prediction,Experiment 2 (test preview),20,visible,0.0,a,3.0,b,,2.0,1.0,2.0,1,0.0,3332.567999999272
269,22.0,hard,prediction,Experiment 2 (test preview),1,hidden,3.0,a,,a,,0.0,3.0,3.0,0,0.0,11074.136999998882
269,22.0,hard,prediction,Experiment 2 (test preview),2,visible,2.0,a,2.0,b,,0.0,3.0,0.0,3,0.0,6443.045999998518
269,22.0,hard,prediction,Experiment 2 (test preview),3,visible,2.0,b,1.0,b,,1.0,0.0,1.0,0,0.0,8751.775999998907
269,22.0,hard,prediction,Experiment 2 (test preview),4,visible,0.0,a,3.0,a,,3.0,0.0,0.0,3,0.0,5571.789999998873
269,22.0,hard,prediction,Experiment 2 (test preview),5,visible,0.0,a,3.0,b,,2.0,1.0,2.0,2,1.0,5644.518999999971
269,22.0,hard,prediction,Experiment 2 (test preview),6,hidden,2.0,a,,b,,1.0,2.0,1.0,1,1.0,2979.0689999996102
269,22.0,hard,prediction,Experiment 2 (test preview),7,hidden,1.0,b,,a,,3.0,2.0,2.0,3,0.0,6043.191999999981
269,22.0,hard,prediction,Experiment 2 (test preview),8,hidden,3.0,a,,b,,2.0,3.0,3.0,2,0.0,3828.9789999992354
269,22.0,hard,prediction,Experiment 2 (test preview),9,visible,3.0,b,2.0,a,,1.0,2.0,2.0,2,1.0,8444.82799999963
269,22.0,hard,prediction,Experiment 2 (test preview),10,hidden,2.0,b,,b,,1.0,3.0,3.0,1,0.0,3692.648999999976
269,22.0,hard,prediction,Experiment 2 (test preview),11,hidden,1.0,a,,a,,3.0,2.0,3.0,2,0.0,3237.496999999974
269,22.0,hard,prediction,Experiment 2 (test preview),12,hidden,2.0,a,,a,,2.0,3.0,2.0,3,0.0,6912.921999999613
269,22.0,hard,prediction,Experiment 2 (test preview),13,hidden,0.0,a,,a,,1.0,0.0,0.0,1,0.0,1754.662999998487
269,22.0,hard,prediction,Experiment 2 (test preview),14,hidden,1.0,b,,a,,3.0,0.0,0.0,0,1.0,7311.375999999989
269,22.0,hard,prediction,Experiment 2 (test preview),15,visible,0.0,b,3.0,a,,2.0,1.0,2.0,1,0.0,10563.329999999609
269,22.0,hard,prediction,Experiment 2 (test preview),16,visible,3.0,a,0.0,b,,3.0,0.0,3.0,3,1.0,5069.69699999888
269,22.0,hard,prediction,Experiment 2 (test preview),17,visible,1.0,a,0.0,a,,3.0,0.0,3.0,0,0.0,3304.0530000000144
269,22.0,hard,prediction,Experiment 2 (test preview),18,visible,1.0,b,3.0,b,,3.0,0.0,3.0,3,1.0,3930.9650000000256
269,22.0,hard,prediction,Experiment 2 (test preview),19,hidden,3.0,b,,b,,1.0,3.0,1.0,1,1.0,4005.722999998892
269,22.0,hard,prediction,Experiment 2 (test preview),20,visible,2.0,b,1.0,a,,3.0,1.0,1.0,1,1.0,4633.261999999988
266,22.0,hard,prediction,Experiment 2 (test preview),1,visible,2.0,b,1.0,a,,3.0,1.0,1.0,3,0.0,1646.521000000008
266,22.0,hard,prediction,Experiment 2 (test preview),2,hidden,2.0,a,,a,,2.0,3.0,2.0,2,1.0,750.4230000476819
266,22.0,hard,prediction,Experiment 2 (test preview),3,hidden,3.0,b,,b,,1.0,3.0,1.0,3,0.0,2416.4829999761423
266,22.0,hard,prediction,Experiment 2 (test preview),4,visible,0.0,a,3.0,b,,2.0,1.0,2.0,2,1.0,1398.7449999999951
266,22.0,hard,prediction,Experiment 2 (test preview),5,visible,0.0,b,3.0,a,,2.0,1.0,2.0,1,0.0,934.6020000476856
266,22.0,hard,prediction,Experiment 2 (test preview),6,visible,0.0,a,3.0,a,,3.0,0.0,0.0,3,0.0,1248.6780000238214
266,22.0,hard,prediction,Experiment 2 (test preview),7,hidden,2.0,b,,b,,1.0,3.0,3.0,1,0.0,1182.4430000477005
266,22.0,hard,prediction,Experiment 2 (test preview),8,visible,2.0,b,1.0,b,,1.0,0.0,1.0,0,0.0,2262.899999952293
266,22.0,hard,prediction,Experiment 2 (test preview),9,hidden,3.0,a,,a,,0.0,3.0,3.0,0,0.0,980.0600000238628
266,22.0,hard,prediction,Experiment 2 (test preview),10,hidden,0.0,a,,a,,1.0,0.0,0.0,1,0.0,3557.0260000476846
266,22.0,hard,prediction,Experiment 2 (test preview),11,visible,1.0,a,0.0,a,,3.0,0.0,3.0,3,1.0,1309.5190000477014
266,22.0,hard,prediction,Experiment 2 (test preview),12,visible,1.0,b,3.0,b,,3.0,0.0,3.0,0,0.0,1312.813999952341
266,22.0,hard,prediction,Experiment 2 (test preview),13,hidden,1.0,b,,a,,3.0,2.0,2.0,2,1.0,1084.7759999761474
266,22.0,hard,prediction,Experiment 2 (test preview),14,visible,3.0,b,2.0,a,,1.0,2.0,2.0,1,0.0,1033.2700000238256
266,22.0,hard,prediction,Experiment 2 (test preview),15,hidden,3.0,a,,b,,2.0,3.0,3.0,2,0.0,1783.7240000238526
266,22.0,hard,prediction,Experiment 2 (test preview),16,hidden,2.0,a,,b,,1.0,2.0,1.0,1,1.0,1487.597999999998
266,22.0,hard,prediction,Experiment 2 (test preview),17,hidden,1.0,a,,a,,3.0,2.0,3.0,3,1.0,979.9680000238586
266,22.0,hard,prediction,Experiment 2 (test preview),18,hidden,1.0,b,,a,,3.0,0.0,0.0,3,0.0,668.9210000238381
266,22.0,hard,prediction,Experiment 2 (test preview),19,visible,3.0,a,0.0,b,,3.0,0.0,3.0,3,1.0,450.80199997616
266,22.0,hard,prediction,Experiment 2 (test preview),20,visible,2.0,a,2.0,b,,0.0,3.0,0.0,0,1.0,2336.927000000025
270,22.0,hard,prediction,Experiment 2 (test preview),1,visible,2.0,a,2.0,b,,0.0,3.0,0.0,3,0.0,4779.242999976152
270,22.0,hard,prediction,Experiment 2 (test preview),2,hidden,0.0,a,,a,,1.0,0.0,0.0,0,1.0,4481.919000011927
270,22.0,hard,prediction,Experiment 2 (test preview),3,hidden,2.0,a,,a,,2.0,3.0,2.0,2,1.0,1522.684000023815
270,22.0,hard,prediction,Experiment 2 (test preview),4,hidden,3.0,a,,a,,0.0,3.0,3.0,0,0.0,7685.398000011919
270,22.0,hard,prediction,Experiment 2 (test preview),5,visible,1.0,a,0.0,a,,3.0,0.0,3.0,3,1.0,2065.3040000119363
270,22.0,hard,prediction,Experiment 2 (test preview),6,visible,2.0,b,1.0,b,,1.0,0.0,1.0,0,0.0,1410.991999988095
270,22.0,hard,prediction,Experiment 2 (test preview),7,visible,2.0,b,1.0,a,,3.0,1.0,1.0,3,0.0,1513.8989999999758
270,22.0,hard,prediction,Experiment 2 (test preview),8,visible,0.0,a,3.0,b,,2.0,1.0,2.0,2,1.0,7376.273999988101
270,22.0,hard,prediction,Experiment 2 (test preview),9,hidden,1.0,b,,a,,3.0,0.0,0.0,0,1.0,7561.848000023863
270,22.0,hard,prediction,Experiment 2 (test preview),10,visible,3.0,b,2.0,a,,1.0,2.0,2.0,2,1.0,730.5619999881019
270,22.0,hard,prediction,Experiment 2 (test preview),11,hidden,1.0,a,,a,,3.0,2.0,3.0,2,0.0,1925.5459999880984
270,22.0,hard,prediction,Experiment 2 (test preview),12,visible,3.0,a,0.0,b,,3.0,0.0,3.0,3,1.0,4179.453000023845
270,22.0,hard,prediction,Experiment 2 (test preview),13,visible,0.0,a,3.0,a,,3.0,0.0,0.0,0,1.0,3641.2489999761456
270,22.0,hard,prediction,Experiment 2 (test preview),14,hidden,1.0,b,,a,,3.0,2.0,2.0,2,1.0,2887.370999988052
270,22.0,hard,prediction,Experiment 2 (test preview),15,visible,1.0,b,3.0,b,,3.0,0.0,3.0,0,0.0,3334.7660000238684
270,22.0,hard,prediction,Experiment 2 (test preview),16,hidden,3.0,b,,b,,1.0,3.0,1.0,1,1.0,1914.2840000119177
270,22.0,hard,prediction,Experiment 2 (test preview),17,visible,0.0,b,3.0,a,,2.0,1.0,2.0,2,1.0,719.3329999880516
270,22.0,hard,prediction,Experiment 2 (test preview),18,hidden,2.0,a,,b,,1.0,2.0,1.0,1,1.0,1749.6030000119354
270,22.0,hard,prediction,Experiment 2 (test preview),19,hidden,3.0,a,,b,,2.0,3.0,3.0,3,1.0,1989.2599999880767
270,22.0,hard,prediction,Experiment 2 (test preview),20,hidden,2.0,b,,b,,1.0,3.0,3.0,1,0.0,5729.222000023816
265,22.0,hard,prediction,Experiment 2 (test preview),1,hidden,0.0,a,,a,,1.0,0.0,0.0,0,1.0,2367.570000000007
265,22.0,hard,prediction,Experiment 2 (test preview),2,visible,1.0,b,3.0,b,,3.0,0.0,3.0,0,0.0,953.1649999970105
265,22.0,hard,prediction,Experiment 2 (test preview),3,visible,2.0,b,1.0,a,,3.0,1.0,1.0,3,0.0,2360.5799999970186
265,22.0,hard,prediction,Experiment 2 (test preview),4,hidden,3.0,b,,b,,1.0,3.0,1.0,3,0.0,1532.952999997011
265,22.0,hard,prediction,Experiment 2 (test preview),5,hidden,2.0,a,,b,,1.0,2.0,1.0,1,1.0,4010.129999997007
265,22.0,hard,prediction,Experiment 2 (test preview),6,hidden,3.0,a,,a,,0.0,3.0,3.0,0,0.0,25487.731999994023
265,22.0,hard,prediction,Experiment 2 (test preview),7,hidden,1.0,b,,a,,3.0,0.0,0.0,0,1.0,2497.547999997041
265,22.0,hard,prediction,Experiment 2 (test preview),8,visible,3.0,a,0.0,b,,3.0,0.0,3.0,0,0.0,5895.006999997015
265,22.0,hard,prediction,Experiment 2 (test preview),9,hidden,2.0,a,,a,,2.0,3.0,2.0,2,1.0,1098.5089999969932
265,22.0,hard,prediction,Experiment 2 (test preview),10,hidden,1.0,b,,a,,3.0,2.0,2.0,3,0.0,2184.2369999940274
265,22.0,hard,prediction,Experiment 2 (test preview),11,visible,1.0,a,0.0,a,,3.0,0.0,3.0,3,1.0,3467.55899999704
265,22.0,hard,prediction,Experiment 2 (test preview),12,visible,0.0,a,3.0,b,,2.0,1.0,2.0,1,0.0,3606.850999996997
265,22.0,hard,prediction,Experiment 2 (test preview),13,hidden,1.0,a,,a,,3.0,2.0,3.0,3,1.0,3263.347999997029
265,22.0,hard,prediction,Experiment 2 (test preview),14,visible,0.0,b,3.0,a,,2.0,1.0,2.0,2,1.0,5591.821999997017
265,22.0,hard,prediction,Experiment 2 (test preview),15,hidden,2.0,b,,b,,1.0,3.0,3.0,1,0.0,1097.8970000029658
265,22.0,hard,prediction,Experiment 2 (test preview),16,visible,0.0,a,3.0,a,,3.0,0.0,0.0,0,1.0,560.2199999940349
265,22.0,hard,prediction,Experiment 2 (test preview),17,visible,2.0,a,2.0,b,,0.0,3.0,0.0,3,0.0,1653.1749999970198
265,22.0,hard,prediction,Experiment 2 (test preview),18,visible,2.0,b,1.0,b,,1.0,0.0,1.0,0,0.0,4115.609999997017
265,22.0,hard,prediction,Experiment 2 (test preview),19,hidden,3.0,a,,b,,2.0,3.0,3.0,3,1.0,711.7489999970421
265,22.0,hard,prediction,Experiment 2 (test preview),20,visible,3.0,b,2.0,a,,1.0,2.0,2.0,1,0.0,1287.0860000029788
262,22.0,hard,prediction,Experiment 2 (test preview),1,hidden,1.0,a,,a,,3.0,2.0,3.0,2,0.0,1640.4120000003604
262,22.0,hard,prediction,Experiment 2 (test preview),2,visible,3.0,a,0.0,b,,3.0,0.0,3.0,3,1.0,3625.890999999625
262,22.0,hard,prediction,Experiment 2 (test preview),3,hidden,1.0,b,,a,,3.0,2.0,2.0,2,1.0,3144.6880000011297
262,22.0,hard,prediction,Experiment 2 (test preview),4,hidden,3.0,b,,b,,1.0,3.0,1.0,3,0.0,905.828999999998
262,22.0,hard,prediction,Experiment 2 (test preview),5,visible,0.0,a,3.0,a,,3.0,0.0,0.0,0,1.0,725.0849999996135
262,22.0,hard,prediction,Experiment 2 (test preview),6,visible,3.0,b,2.0,a,,1.0,2.0,2.0,1,0.0,7595.735000000743
262,22.0,hard,prediction,Experiment 2 (test preview),7,visible,2.0,b,1.0,a,,3.0,1.0,1.0,3,0.0,1936.6800000003716
262,22.0,hard,prediction,Experiment 2 (test preview),8,hidden,3.0,a,,a,,0.0,3.0,3.0,3,1.0,583.0750000007392
262,22.0,hard,prediction,Experiment 2 (test preview),9,visible,1.0,a,0.0,a,,3.0,0.0,3.0,0,0.0,4148.627999999619
262,22.0,hard,prediction,Experiment 2 (test preview),10,hidden,0.0,a,,a,,1.0,0.0,0.0,0,1.0,2984.0640000007406
262,22.0,hard,prediction,Experiment 2 (test preview),11,visible,0.0,b,3.0,a,,2.0,1.0,2.0,1,0.0,2114.58500000037
262,22.0,hard,prediction,Experiment 2 (test preview),12,hidden,2.0,b,,b,,1.0,3.0,3.0,1,0.0,2973.784000000742
262,22.0,hard,prediction,Experiment 2 (test preview),13,hidden,1.0,b,,a,,3.0,0.0,0.0,3,0.0,250.58600000001024
262,22.0,hard,prediction,Experiment 2 (test preview),14,hidden,2.0,a,,b,,1.0,2.0,1.0,2,0.0,426.6660000011034
262,22.0,hard,prediction,Experiment 2 (test preview),15,visible,0.0,a,3.0,b,,2.0,1.0,2.0,2,1.0,283.515000000014
262,22.0,hard,prediction,Experiment 2 (test preview),16,visible,1.0,b,3.0,b,,3.0,0.0,3.0,3,1.0,666.9500000011176
262,22.0,hard,prediction,Experiment 2 (test preview),17,visible,2.0,a,2.0,b,,0.0,3.0,0.0,0,1.0,2893.735000001121
262,22.0,hard,prediction,Experiment 2 (test preview),18,visible,2.0,b,1.0,b,,1.0,0.0,1.0,1,1.0,1414.3880000000063
262,22.0,hard,prediction,Experiment 2 (test preview),19,hidden,2.0,a,,a,,2.0,3.0,2.0,3,0.0,584.7720000003756
262,22.0,hard,prediction,Experiment 2 (test preview),20,hidden,3.0,a,,b,,2.0,3.0,3.0,2,0.0,341.0240000007325
268,22.0,hard,prediction,Experiment 2 (test preview),1,visible,3.0,a,0.0,b,,3.0,0.0,3.0,3,1.0,3632.644000023836
268,22.0,hard,prediction,Experiment 2 (test preview),2,visible,2.0,b,1.0,a,,3.0,1.0,1.0,1,1.0,886.7230000238633
268,22.0,hard,prediction,Experiment 2 (test preview),3,visible,1.0,a,0.0,a,,3.0,0.0,3.0,0,0.0,3395.9400000715395
268,22.0,hard,prediction,Experiment 2 (test preview),4,visible,3.0,b,2.0,a,,1.0,2.0,2.0,2,1.0,844.945000000007
268,22.0,hard,prediction,Experiment 2 (test preview),5,visible,0.0,a,3.0,a,,3.0,0.0,0.0,0,1.0,2037.6200000953395
268,22.0,hard,prediction,Experiment 2 (test preview),6,hidden,3.0,b,,b,,1.0,3.0,1.0,1,1.0,4670.787000000011
268,22.0,hard,prediction,Experiment 2 (test preview),7,hidden,2.0,a,,a,,2.0,3.0,2.0,2,1.0,1275.091000047687
268,22.0,hard,prediction,Experiment 2 (test preview),8,visible,0.0,a,3.0,b,,2.0,1.0,2.0,2,1.0,5481.56400002382
268,22.0,hard,prediction,Experiment 2 (test preview),9,visible,1.0,b,3.0,b,,3.0,0.0,3.0,0,0.0,4228.204000095371
268,22.0,hard,prediction,Experiment 2 (test preview),10,hidden,2.0,b,,b,,1.0,3.0,3.0,3,1.0,2450.086000023817
268,22.0,hard,prediction,Experiment 2 (test preview),11,hidden,1.0,b,,a,,3.0,2.0,2.0,2,1.0,1216.6270000238435
268,22.0,hard,prediction,Experiment 2 (test preview),12,hidden,2.0,a,,b,,1.0,2.0,1.0,1,1.0,2843.9180000715423
268,22.0,hard,prediction,Experiment 2 (test preview),13,hidden,1.0,b,,a,,3.0,0.0,0.0,3,0.0,3464.800000023853
268,22.0,hard,prediction,Experiment 2 (test preview),14,visible,2.0,b,1.0,b,,1.0,0.0,1.0,1,1.0,841.1880000476958
268,22.0,hard,prediction,Experiment 2 (test preview),15,hidden,3.0,a,,a,,0.0,3.0,3.0,3,1.0,3478.106000095373
268,22.0,hard,prediction,Experiment 2 (test preview),16,visible,2.0,a,2.0,b,,0.0,3.0,0.0,0,1.0,4058.249000095355
268,22.0,hard,prediction,Experiment 2 (test preview),17,hidden,3.0,a,,b,,2.0,3.0,3.0,3,1.0,1937.2580000715095
268,22.0,hard,prediction,Experiment 2 (test preview),18,hidden,1.0,a,,a,,3.0,2.0,3.0,2,0.0,2762.841000000015
268,22.0,hard,prediction,Experiment 2 (test preview),19,visible,0.0,b,3.0,a,,2.0,1.0,2.0,1,0.0,1065.652000000002
268,22.0,hard,prediction,Experiment 2 (test preview),20,hidden,0.0,a,,a,,1.0,0.0,0.0,0,1.0,4500.928000071552
277,22.0,hard,prediction,Experiment 2 (test preview),1,visible,3.0,a,0.0,b,,3.0,0.0,3.0,0,0.0,7595.511999988055
277,22.0,hard,prediction,Experiment 2 (test preview),2,visible,2.0,b,1.0,b,,1.0,0.0,1.0,0,0.0,6090.481000011903
277,22.0,hard,prediction,Experiment 2 (test preview),3,hidden,0.0,a,,a,,1.0,0.0,0.0,0,1.0,10142.891000035745
277,22.0,hard,prediction,Experiment 2 (test preview),4,visible,1.0,a,0.0,a,,3.0,0.0,3.0,3,1.0,19916.95600002387
277,22.0,hard,prediction,Experiment 2 (test preview),5,visible,0.0,a,3.0,b,,2.0,1.0,2.0,1,0.0,9772.858000023873
277,22.0,hard,prediction,Experiment 2 (test preview),6,hidden,2.0,a,,b,,1.0,2.0,1.0,1,1.0,9438.639000023832
277,22.0,hard,prediction,Experiment 2 (test preview),7,hidden,1.0,b,,a,,3.0,2.0,2.0,2,1.0,11686.048000035807
277,22.0,hard,prediction,Experiment 2 (test preview),8,visible,0.0,b,3.0,a,,2.0,1.0,2.0,2,1.0,10297.146000035806
277,22.0,hard,prediction,Experiment 2 (test preview),9,hidden,2.0,a,,a,,2.0,3.0,2.0,2,1.0,1138.216999999946
277,22.0,hard,prediction,Experiment 2 (test preview),10,visible,3.0,b,2.0,a,,1.0,2.0,2.0,2,1.0,4246.328000035719
277,22.0,hard,prediction,Experiment 2 (test preview),11,visible,0.0,a,3.0,a,,3.0,0.0,0.0,0,1.0,3863.447999999975
277,22.0,hard,prediction,Experiment 2 (test preview),12,visible,2.0,b,1.0,a,,3.0,1.0,1.0,3,0.0,4641.02600002382
277,22.0,hard,prediction,Experiment 2 (test preview),13,hidden,3.0,a,,b,,2.0,3.0,3.0,3,1.0,6597.404000011971
277,22.0,hard,prediction,Experiment 2 (test preview),14,hidden,3.0,b,,b,,1.0,3.0,1.0,1,1.0,5621.478000000003
277,22.0,hard,prediction,Experiment 2 (test preview),15,visible,1.0,b,3.0,b,,3.0,0.0,3.0,0,0.0,4365.29200001189
277,22.0,hard,prediction,Experiment 2 (test preview),16,hidden,3.0,a,,a,,0.0,3.0,3.0,3,1.0,4207.297999988077
277,22.0,hard,prediction,Experiment 2 (test preview),17,hidden,1.0,b,,a,,3.0,0.0,0.0,0,1.0,13814.080999988131
277,22.0,hard,prediction,Experiment 2 (test preview),18,hidden,2.0,b,,b,,1.0,3.0,3.0,3,1.0,7983.998000000021
277,22.0,hard,prediction,Experiment 2 (test preview),19,hidden,1.0,a,,a,,3.0,2.0,3.0,2,0.0,3330.505000011879
277,22.0,hard,prediction,Experiment 2 (test preview),20,visible,2.0,a,2.0,b,,0.0,3.0,0.0,3,0.0,15359.897000023862
271,22.0,hard,prediction,Experiment 2 (test preview),1,hidden,3.0,a,,a,,0.0,3.0,3.0,3,1.0,2604.011000023864
271,22.0,hard,prediction,Experiment 2 (test preview),2,hidden,3.0,b,,b,,1.0,3.0,1.0,3,0.0,981.5229999761796
271,22.0,hard,prediction,Experiment 2 (test preview),3,visible,3.0,a,0.0,b,,3.0,0.0,3.0,3,1.0,1947.9629999999888
271,22.0,hard,prediction,Experiment 2 (test preview),4,visible,1.0,b,3.0,b,,3.0,0.0,3.0,3,1.0,800.8810000238591
271,22.0,hard,prediction,Experiment 2 (test preview),5,hidden,1.0,b,,a,,3.0,0.0,0.0,0,1.0,3636.670999999973
271,22.0,hard,prediction,Experiment 2 (test preview),6,hidden,1.0,b,,a,,3.0,2.0,2.0,3,0.0,916.576000071538
271,22.0,hard,prediction,Experiment 2 (test preview),7,visible,2.0,a,2.0,b,,0.0,3.0,0.0,0,1.0,1699.6359999761337
271,22.0,hard,prediction,Experiment 2 (test preview),8,visible,0.0,a,3.0,b,,2.0,1.0,2.0,1,0.0,2235.445000071544
271,22.0,hard,prediction,Experiment 2 (test preview),9,visible,2.0,b,1.0,b,,1.0,0.0,1.0,1,1.0,874.8500000715139
271,22.0,hard,prediction,Experiment 2 (test preview),10,hidden,2.0,a,,b,,1.0,2.0,1.0,2,0.0,1274.935999999987
271,22.0,hard,prediction,Experiment 2 (test preview),11,hidden,2.0,a,,a,,2.0,3.0,2.0,2,1.0,934.6759999999776
271,22.0,hard,prediction,Experiment 2 (test preview),12,hidden,2.0,b,,b,,1.0,3.0,3.0,3,1.0,780.5160000000033
271,22.0,hard,prediction,Experiment 2 (test preview),13,hidden,3.0,a,,b,,2.0,3.0,3.0,2,0.0,726.7340000238619
271,22.0,hard,prediction,Experiment 2 (test preview),14,hidden,0.0,a,,a,,1.0,0.0,0.0,0,1.0,955.6989999761572
271,22.0,hard,prediction,Experiment 2 (test preview),15,visible,0.0,b,3.0,a,,2.0,1.0,2.0,1,0.0,1065.9760000238311
271,22.0,hard,prediction,Experiment 2 (test preview),16,visible,2.0,b,1.0,a,,3.0,1.0,1.0,1,1.0,785.0410000238335
271,22.0,hard,prediction,Experiment 2 (test preview),17,visible,0.0,a,3.0,a,,3.0,0.0,0.0,3,0.0,799.686000047659
271,22.0,hard,prediction,Experiment 2 (test preview),18,hidden,1.0,a,,a,,3.0,2.0,3.0,2,0.0,1322.5650000238677
271,22.0,hard,prediction,Experiment 2 (test preview),19,visible,1.0,a,0.0,a,,3.0,0.0,3.0,0,0.0,899.8850000715465
271,22.0,hard,prediction,Experiment 2 (test preview),20,visible,3.0,b,2.0,a,,1.0,2.0,2.0,2,1.0,714.2610000238637
272,22.0,hard,prediction,Experiment 2 (test preview),1,visible,1.0,b,3.0,b,,3.0,0.0,3.0,0,0.0,1285.3899999046116
272,22.0,hard,prediction,Experiment 2 (test preview),2,visible,2.0,a,2.0,b,,0.0,3.0,0.0,3,0.0,1704.9319998092833
272,22.0,hard,prediction,Experiment 2 (test preview),3,hidden,1.0,a,,a,,3.0,2.0,3.0,3,1.0,6216.98799990461
272,22.0,hard,prediction,Experiment 2 (test preview),4,hidden,3.0,a,,b,,2.0,3.0,3.0,3,1.0,5478.938999904611
272,22.0,hard,prediction,Experiment 2 (test preview),5,hidden,2.0,a,,a,,2.0,3.0,2.0,2,1.0,3296.346999713918
272,22.0,hard,prediction,Experiment 2 (test preview),6,hidden,2.0,a,,b,,1.0,2.0,1.0,1,1.0,3632.907999713905
272,22.0,hard,prediction,Experiment 2 (test preview),7,visible,0.0,a,3.0,b,,2.0,1.0,2.0,2,1.0,9016.132999999973
272,22.0,hard,prediction,Experiment 2 (test preview),8,hidden,0.0,a,,a,,1.0,0.0,0.0,0,1.0,6489.990999904636
272,22.0,hard,prediction,Experiment 2 (test preview),9,visible,3.0,a,0.0,b,,3.0,0.0,3.0,3,1.0,4677.800999713887
272,22.0,hard,prediction,Experiment 2 (test preview),10,visible,1.0,a,0.0,a,,3.0,0.0,3.0,3,1.0,3804.728999713901
272,22.0,hard,prediction,Experiment 2 (test preview),11,hidden,3.0,b,,b,,1.0,3.0,1.0,1,1.0,4018.6329996185377
272,22.0,hard,prediction,Experiment 2 (test preview),12,visible,0.0,a,3.0,a,,3.0,0.0,0.0,3,0.0,3825.2539996185214
272,22.0,hard,prediction,Experiment 2 (test preview),13,hidden,2.0,b,,b,,1.0,3.0,3.0,1,0.0,3404.100999713876
272,22.0,hard,prediction,Experiment 2 (test preview),14,hidden,3.0,a,,a,,0.0,3.0,3.0,3,1.0,4251.246999618539
272,22.0,hard,prediction,Experiment 2 (test preview),15,hidden,1.0,b,,a,,3.0,2.0,2.0,3,0.0,2192.5539996185107
272,22.0,hard,prediction,Experiment 2 (test preview),16,visible,0.0,b,3.0,a,,2.0,1.0,2.0,2,1.0,941.6790000000036
272,22.0,hard,prediction,Experiment 2 (test preview),17,visible,3.0,b,2.0,a,,1.0,2.0,2.0,1,0.0,939.0910000000148
272,22.0,hard,prediction,Experiment 2 (test preview),18,visible,2.0,b,1.0,a,,3.0,1.0,1.0,3,0.0,2070.889999618521
272,22.0,hard,prediction,Experiment 2 (test preview),19,hidden,1.0,b,,a,,3.0,0.0,0.0,0,1.0,2859.9839999046526
272,22.0,hard,prediction,Experiment 2 (test preview),20,visible,2.0,b,1.0,b,,1.0,0.0,1.0,1,1.0,2687.177999809268
273,22.0,hard,prediction,Experiment 2 (test preview),1,visible,1.0,a,0.0,a,,3.0,0.0,3.0,0,0.0,1550.9240000476711
273,22.0,hard,prediction,Experiment 2 (test preview),2,visible,3.0,b,2.0,a,,1.0,2.0,2.0,1,0.0,753.859000071534
273,22.0,hard,prediction,Experiment 2 (test preview),3,hidden,1.0,b,,a,,3.0,0.0,0.0,3,0.0,2753.387999999977
273,22.0,hard,prediction,Experiment 2 (test preview),4,hidden,0.0,a,,a,,1.0,0.0,0.0,1,0.0,3088.506000047666
273,22.0,hard,prediction,Experiment 2 (test preview),5,visible,0.0,b,3.0,a,,2.0,1.0,2.0,1,0.0,3180.4610000476823
273,22.0,hard,prediction,Experiment 2 (test preview),6,hidden,3.0,a,,a,,0.0,3.0,3.0,0,0.0,2442.8099999999977
273,22.0,hard,prediction,Experiment 2 (test preview),7,hidden,2.0,a,,b,,1.0,2.0,1.0,1,1.0,888.6230000715004
273,22.0,hard,prediction,Experiment 2 (test preview),8,hidden,3.0,b,,b,,1.0,3.0,1.0,3,0.0,2236.9220000238274
273,22.0,hard,prediction,Experiment 2 (test preview),9,hidden,2.0,b,,b,,1.0,3.0,3.0,3,1.0,4484.463000047661
273,22.0,hard,prediction,Experiment 2 (test preview),10,hidden,2.0,a,,a,,2.0,3.0,2.0,2,1.0,7252.447000023851
273,22.0,hard,prediction,Experiment 2 (test preview),11,hidden,1.0,a,,a,,3.0,2.0,3.0,2,0.0,1685.180000047665
273,22.0,hard,prediction,Experiment 2 (test preview),12,visible,1.0,b,3.0,b,,3.0,0.0,3.0,3,1.0,682.6360000715358
273,22.0,hard,prediction,Experiment 2 (test preview),13,visible,3.0,a,0.0,b,,3.0,0.0,3.0,3,1.0,1918.5720000476576
273,22.0,hard,prediction,Experiment 2 (test preview),14,hidden,3.0,a,,b,,2.0,3.0,3.0,3,1.0,2627.9130000000005
273,22.0,hard,prediction,Experiment 2 (test preview),15,visible,0.0,a,3.0,b,,2.0,1.0,2.0,2,1.0,6359.841000071552
273,22.0,hard,prediction,Experiment 2 (test preview),16,visible,0.0,a,3.0,a,,3.0,0.0,0.0,3,0.0,711.4820000000182
273,22.0,hard,prediction,Experiment 2 (test preview),17,visible,2.0,a,2.0,b,,0.0,3.0,0.0,3,0.0,2662.5950000477023
273,22.0,hard,prediction,Experiment 2 (test preview),18,visible,2.0,b,1.0,a,,3.0,1.0,1.0,1,1.0,3358.606000047701
273,22.0,hard,prediction,Experiment 2 (test preview),19,hidden,1.0,b,,a,,3.0,2.0,2.0,3,0.0,6209.966000071552
273,22.0,hard,prediction,Experiment 2 (test preview),20,visible,2.0,b,1.0,b,,1.0,0.0,1.0,0,0.0,2459.4520000953926
274,22.0,hard,prediction,Experiment 2 (test preview),1,hidden,1.0,b,,a,,3.0,2.0,2.0,3,0.0,7564.43899998808
274,22.0,hard,prediction,Experiment 2 (test preview),2,hidden,3.0,a,,b,,2.0,3.0,3.0,2,0.0,5009.991000000009
274,22.0,hard,prediction,Experiment 2 (test preview),3,visible,2.0,a,2.0,b,,0.0,3.0,0.0,0,1.0,5068.720999991056
274,22.0,hard,prediction,Experiment 2 (test preview),4,hidden,1.0,b,,a,,3.0,0.0,0.0,0,1.0,13812.453999997
274,22.0,hard,prediction,Experiment 2 (test preview),5,visible,2.0,b,1.0,b,,1.0,0.0,1.0,1,1.0,651.2919999940204
274,22.0,hard,prediction,Experiment 2 (test preview),6,hidden,3.0,b,,b,,1.0,3.0,1.0,1,1.0,2977.2419999970007
274,22.0,hard,prediction,Experiment 2 (test preview),7,visible,1.0,a,0.0,a,,3.0,0.0,3.0,3,1.0,3056.2539999910514
274,22.0,hard,prediction,Experiment 2 (test preview),8,hidden,2.0,a,,a,,2.0,3.0,2.0,3,0.0,2403.3229999940377
274,22.0,hard,prediction,Experiment 2 (test preview),9,hidden,0.0,a,,a,,1.0,0.0,0.0,0,1.0,16770.804999999993
274,22.0,hard,prediction,Experiment 2 (test preview),10,visible,2.0,b,1.0,a,,3.0,1.0,1.0,1,1.0,1710.1889999940176
274,22.0,hard,prediction,Experiment 2 (test preview),11,visible,1.0,b,3.0,b,,3.0,0.0,3.0,3,1.0,811.7849999970058
274,22.0,hard,prediction,Experiment 2 (test preview),12,visible,3.0,b,2.0,a,,1.0,2.0,2.0,2,1.0,3644.654999988096
274,22.0,hard,prediction,Experiment 2 (test preview),13,hidden,1.0,a,,a,,3.0,2.0,3.0,3,1.0,8664.078999994032
274,22.0,hard,prediction,Experiment 2 (test preview),14,visible,0.0,a,3.0,b,,2.0,1.0,2.0,1,0.0,10616.233999997028
274,22.0,hard,prediction,Experiment 2 (test preview),15,hidden,3.0,a,,a,,0.0,3.0,3.0,0,0.0,2190.01099999703
274,22.0,hard,prediction,Experiment 2 (test preview),16,hidden,2.0,a,,b,,1.0,2.0,1.0,2,0.0,1809.264000000025
274,22.0,hard,prediction,Experiment 2 (test preview),17,visible,0.0,b,3.0,a,,2.0,1.0,2.0,1,0.0,2558.6829999969923
274,22.0,hard,prediction,Experiment 2 (test preview),18,visible,0.0,a,3.0,a,,3.0,0.0,0.0,3,0.0,1218.961999988067
274,22.0,hard,prediction,Experiment 2 (test preview),19,visible,3.0,a,0.0,b,,3.0,0.0,3.0,0,0.0,3870.664999994042
274,22.0,hard,prediction,Experiment 2 (test preview),20,hidden,2.0,b,,b,,1.0,3.0,3.0,1,0.0,2314.9509999880684
275,22.0,hard,prediction,Experiment 2 (test preview),1,visible,3.0,b,2.0,a,,1.0,2.0,2.0,2,1.0,4337.667999904632
275,22.0,hard,prediction,Experiment 2 (test preview),2,hidden,2.0,a,,a,,2.0,3.0,2.0,2,1.0,2960.649999999994
275,22.0,hard,prediction,Experiment 2 (test preview),3,hidden,0.0,a,,a,,1.0,0.0,0.0,1,0.0,5109.95199999999
275,22.0,hard,prediction,Experiment 2 (test preview),4,visible,1.0,a,0.0,a,,3.0,0.0,3.0,0,0.0,3024.6409998092568
275,22.0,hard,prediction,Experiment 2 (test preview),5,hidden,1.0,a,,a,,3.0,2.0,3.0,3,1.0,2832.9339997138886
275,22.0,hard,prediction,Experiment 2 (test preview),6,hidden,3.0,a,,b,,2.0,3.0,3.0,2,0.0,2772.0009999999893
275,22.0,hard,prediction,Experiment 2 (test preview),7,hidden,1.0,b,,a,,3.0,0.0,0.0,0,1.0,2847.15099961852
275,22.0,hard,prediction,Experiment 2 (test preview),8,hidden,2.0,b,,b,,1.0,3.0,3.0,3,1.0,6819.571999618551
275,22.0,hard,prediction,Experiment 2 (test preview),9,visible,2.0,a,2.0,b,,0.0,3.0,0.0,0,1.0,6879.703999713878
275,22.0,hard,prediction,Experiment 2 (test preview),10,visible,2.0,b,1.0,b,,1.0,0.0,1.0,1,1.0,1603.829999904614
275,22.0,hard,prediction,Experiment 2 (test preview),11,visible,1.0,b,3.0,b,,3.0,0.0,3.0,3,1.0,8961.076999618555
275,22.0,hard,prediction,Experiment 2 (test preview),12,hidden,1.0,b,,a,,3.0,2.0,2.0,3,0.0,3039.740999618545
275,22.0,hard,prediction,Experiment 2 (test preview),13,visible,0.0,b,3.0,a,,2.0,1.0,2.0,1,0.0,1246.7999999999884
275,22.0,hard,prediction,Experiment 2 (test preview),14,hidden,3.0,a,,a,,0.0,3.0,3.0,0,0.0,3030.229999809293
275,22.0,hard,prediction,Experiment 2 (test preview),15,visible,2.0,b,1.0,a,,3.0,1.0,1.0,1,1.0,2316.445000000007
275,22.0,hard,prediction,Experiment 2 (test preview),16,hidden,3.0,b,,b,,1.0,3.0,1.0,1,1.0,4725.64099961851
275,22.0,hard,prediction,Experiment 2 (test preview),17,visible,3.0,a,0.0,b,,3.0,0.0,3.0,0,0.0,4761.876999618544
275,22.0,hard,prediction,Experiment 2 (test preview),18,visible,0.0,a,3.0,a,,3.0,0.0,0.0,3,0.0,6408.646999999997
275,22.0,hard,prediction,Experiment 2 (test preview),19,hidden,2.0,a,,b,,1.0,2.0,1.0,2,0.0,4186.244999618502
275,22.0,hard,prediction,Experiment 2 (test preview),20,visible,0.0,a,3.0,b,,2.0,1.0,2.0,1,0.0,2603.265000000014
276,22.0,hard,prediction,Experiment 2 (test preview),1,hidden,3.0,a,,a,,0.0,3.0,3.0,0,0.0,5472.713999904634
276,22.0,hard,prediction,Experiment 2 (test preview),2,hidden,0.0,a,,a,,1.0,0.0,0.0,1,0.0,2296.0659998569754
276,22.0,hard,prediction,Experiment 2 (test preview),3,visible,2.0,b,1.0,a,,3.0,1.0,1.0,1,1.0,5114.684999999998
276,22.0,hard,prediction,Experiment 2 (test preview),4,visible,1.0,b,3.0,b,,3.0,0.0,3.0,0,0.0,3780.1759999999776
276,22.0,hard,prediction,Experiment 2 (test preview),5,hidden,2.0,a,,b,,1.0,2.0,1.0,2,0.0,2424.708000047656
276,22.0,hard,prediction,Experiment 2 (test preview),6,hidden,2.0,a,,a,,2.0,3.0,2.0,2,1.0,1509.1830000476912
276,22.0,hard,prediction,Experiment 2 (test preview),7,visible,3.0,b,2.0,a,,1.0,2.0,2.0,2,1.0,2148.862000000023
276,22.0,hard,prediction,Experiment 2 (test preview),8,hidden,1.0,b,,a,,3.0,2.0,2.0,3,0.0,2351.3839999046177
276,22.0,hard,prediction,Experiment 2 (test preview),9,visible,0.0,b,3.0,a,,2.0,1.0,2.0,2,1.0,4785.194999904605
276,22.0,hard,prediction,Experiment 2 (test preview),10,hidden,1.0,b,,a,,3.0,0.0,0.0,0,1.0,1829.917000047688
276,22.0,hard,prediction,Experiment 2 (test preview),11,visible,3.0,a,0.0,b,,3.0,0.0,3.0,0,0.0,3022.1849998569232
276,22.0,hard,prediction,Experiment 2 (test preview),12,visible,2.0,a,2.0,b,,0.0,3.0,0.0,0,1.0,3454.597999856924
276,22.0,hard,prediction,Experiment 2 (test preview),13,visible,0.0,a,3.0,a,,3.0,0.0,0.0,3,0.0,2374.7279999523307
276,22.0,hard,prediction,Experiment 2 (test preview),14,visible,0.0,a,3.0,b,,2.0,1.0,2.0,1,0.0,3471.799999904644
276,22.0,hard,prediction,Experiment 2 (test preview),15,hidden,3.0,b,,b,,1.0,3.0,1.0,1,1.0,2508.2110000476823
276,22.0,hard,prediction,Experiment 2 (test preview),16,visible,2.0,b,1.0,b,,1.0,0.0,1.0,1,1.0,3542.9899999999907
276,22.0,hard,prediction,Experiment 2 (test preview),17,hidden,3.0,a,,b,,2.0,3.0,3.0,2,0.0,2460.6079999523354
276,22.0,hard,prediction,Experiment 2 (test preview),18,hidden,2.0,b,,b,,1.0,3.0,3.0,1,0.0,1930.0349999999744
276,22.0,hard,prediction,Experiment 2 (test preview),19,visible,1.0,a,0.0,a,,3.0,0.0,3.0,3,1.0,2846.71699990466
276,22.0,hard,prediction,Experiment 2 (test preview),20,hidden,1.0,a,,a,,3.0,2.0,3.0,2,0.0,1947.2679999999816
281,22.0,hard,prediction,Experiment 2 (test preview),1,hidden,2.0,a,,b,,1.0,2.0,1.0,1,1.0,8737.673999999999
281,22.0,hard,prediction,Experiment 2 (test preview),2,hidden,3.0,a,,a,,0.0,3.0,3.0,3,1.0,4474.552999999956
281,22.0,hard,prediction,Experiment 2 (test preview),3,hidden,1.0,a,,a,,3.0,2.0,3.0,3,1.0,6367.378999999957
281,22.0,hard,prediction,Experiment 2 (test preview),4,visible,2.0,b,1.0,b,,1.0,0.0,1.0,0,0.0,8401.874000006006
281,22.0,hard,prediction,Experiment 2 (test preview),5,hidden,2.0,a,,a,,2.0,3.0,2.0,3,0.0,4666.964999988093
281,22.0,hard,prediction,Experiment 2 (test preview),6,visible,0.0,a,3.0,b,,2.0,1.0,2.0,2,1.0,11495.165000005974
281,22.0,hard,prediction,Experiment 2 (test preview),7,visible,3.0,b,2.0,a,,1.0,2.0,2.0,2,1.0,6039.529000005918
281,22.0,hard,prediction,Experiment 2 (test preview),8,visible,1.0,a,0.0,a,,3.0,0.0,3.0,3,1.0,5915.454000005964
281,22.0,hard,prediction,Experiment 2 (test preview),9,hidden,1.0,b,,a,,3.0,2.0,2.0,3,0.0,5775.301999988034
281,22.0,hard,prediction,Experiment 2 (test preview),10,hidden,2.0,b,,b,,1.0,3.0,3.0,3,1.0,9274.272999993991
281,22.0,hard,prediction,Experiment 2 (test preview),11,hidden,3.0,b,,b,,1.0,3.0,1.0,3,0.0,14833.735999988045
281,22.0,hard,prediction,Experiment 2 (test preview),12,visible,2.0,a,2.0,b,,0.0,3.0,0.0,3,0.0,4266.423999982071
281,22.0,hard,prediction,Experiment 2 (test preview),13,hidden,0.0,a,,a,,1.0,0.0,0.0,0,1.0,9720.340000005905
281,22.0,hard,prediction,Experiment 2 (test preview),14,visible,2.0,b,1.0,a,,3.0,1.0,1.0,1,1.0,9802.278000005988
281,22.0,hard,prediction,Experiment 2 (test preview),15,hidden,3.0,a,,b,,2.0,3.0,3.0,2,0.0,10116.77099999995
281,22.0,hard,prediction,Experiment 2 (test preview),16,visible,3.0,a,0.0,b,,3.0,0.0,3.0,3,1.0,5956.427999982145
281,22.0,hard,prediction,Experiment 2 (test preview),17,hidden,1.0,b,,a,,3.0,0.0,0.0,0,1.0,14107.386999999988
281,22.0,hard,prediction,Experiment 2 (test preview),18,visible,0.0,b,3.0,a,,2.0,1.0,2.0,2,1.0,9430.57200000598
281,22.0,hard,prediction,Experiment 2 (test preview),19,visible,0.0,a,3.0,a,,3.0,0.0,0.0,3,0.0,5172.052999988082
281,22.0,hard,prediction,Experiment 2 (test preview),20,visible,1.0,b,3.0,b,,3.0,0.0,3.0,0,0.0,4708.533999994048
278,22.0,hard,prediction,Experiment 2 (test preview),1,visible,3.0,a,0.0,b,,3.0,0.0,3.0,3,1.0,3745.3550003814735
278,22.0,hard,prediction,Experiment 2 (test preview),2,hidden,2.0,b,,b,,1.0,3.0,3.0,1,0.0,2523.6689999999944
278,22.0,hard,prediction,Experiment 2 (test preview),3,hidden,1.0,b,,a,,3.0,2.0,2.0,2,1.0,1611.7070002860855
278,22.0,hard,prediction,Experiment 2 (test preview),4,visible,0.0,b,3.0,a,,2.0,1.0,2.0,1,0.0,1169.8630000953565
278,22.0,hard,prediction,Experiment 2 (test preview),5,visible,2.0,b,1.0,b,,1.0,0.0,1.0,1,1.0,1881.3450000953744
278,22.0,hard,prediction,Experiment 2 (test preview),6,hidden,2.0,a,,b,,1.0,2.0,1.0,2,0.0,1229.9860002861242
278,22.0,hard,prediction,Experiment 2 (test preview),7,visible,1.0,b,3.0,b,,3.0,0.0,3.0,3,1.0,1976.2680001907283
278,22.0,hard,prediction,Experiment 2 (test preview),8,hidden,3.0,a,,b,,2.0,3.0,3.0,2,0.0,2305.294000286085
278,22.0,hard,prediction,Experiment 2 (test preview),9,visible,0.0,a,3.0,a,,3.0,0.0,0.0,3,0.0,2629.129000000016
278,22.0,hard,prediction,Experiment 2 (test preview),10,visible,0.0,a,3.0,b,,2.0,1.0,2.0,1,0.0,1358.4460000953404
278,22.0,hard,prediction,Experiment 2 (test preview),11,hidden,1.0,a,,a,,3.0,2.0,3.0,2,0.0,5473.446000286087
278,22.0,hard,prediction,Experiment 2 (test preview),12,visible,3.0,b,2.0,a,,1.0,2.0,2.0,2,1.0,2060.648000190733
278,22.0,hard,prediction,Experiment 2 (test preview),13,hidden,0.0,a,,a,,1.0,0.0,0.0,0,1.0,1331.9690002860734
278,22.0,hard,prediction,Experiment 2 (test preview),14,visible,2.0,a,2.0,b,,0.0,3.0,0.0,0,1.0,3321.2480000953656
278,22.0,hard,prediction,Experiment 2 (test preview),15,hidden,3.0,b,,b,,1.0,3.0,1.0,3,0.0,3814.433000000019
278,22.0,hard,prediction,Experiment 2 (test preview),16,visible,1.0,a,0.0,a,,3.0,0.0,3.0,0,0.0,750.4430000953726
278,22.0,hard,prediction,Experiment 2 (test preview),17,hidden,3.0,a,,a,,0.0,3.0,3.0,3,1.0,1345.4840003814895
278,22.0,hard,prediction,Experiment 2 (test preview),18,hidden,2.0,a,,a,,2.0,3.0,2.0,2,1.0,1733.468000286084
278,22.0,hard,prediction,Experiment 2 (test preview),19,visible,2.0,b,1.0,a,,3.0,1.0,1.0,1,1.0,1783.685999999987
278,22.0,hard,prediction,Experiment 2 (test preview),20,hidden,1.0,b,,a,,3.0,0.0,0.0,0,1.0,2024.5070001907295
280,22.0,hard,prediction,Experiment 2 (test preview),1,hidden,3.0,a,,a,,0.0,3.0,3.0,3,1.0,2956.0
280,22.0,hard,prediction,Experiment 2 (test preview),2,visible,1.0,a,0.0,a,,3.0,0.0,3.0,3,1.0,4416.0
280,22.0,hard,prediction,Experiment 2 (test preview),3,visible,0.0,a,3.0,a,,3.0,0.0,0.0,3,0.0,3410.0
280,22.0,hard,prediction,Experiment 2 (test preview),4,hidden,3.0,b,,b,,1.0,3.0,1.0,1,1.0,4696.0
280,22.0,hard,prediction,Experiment 2 (test preview),5,visible,0.0,a,3.0,b,,2.0,1.0,2.0,2,1.0,3882.0
280,22.0,hard,prediction,Experiment 2 (test preview),6,visible,3.0,a,0.0,b,,3.0,0.0,3.0,3,1.0,8324.0
280,22.0,hard,prediction,Experiment 2 (test preview),7,hidden,3.0,a,,b,,2.0,3.0,3.0,2,0.0,5440.0
280,22.0,hard,prediction,Experiment 2 (test preview),8,hidden,1.0,b,,a,,3.0,0.0,0.0,0,1.0,5100.0
280,22.0,hard,prediction,Experiment 2 (test preview),9,hidden,1.0,a,,a,,3.0,2.0,3.0,2,0.0,5264.0
280,22.0,hard,prediction,Experiment 2 (test preview),10,visible,2.0,b,1.0,b,,1.0,0.0,1.0,0,0.0,7075.0
280,22.0,hard,prediction,Experiment 2 (test preview),11,visible,2.0,a,2.0,b,,0.0,3.0,0.0,3,0.0,5663.0
280,22.0,hard,prediction,Experiment 2 (test preview),12,hidden,2.0,a,,b,,1.0,2.0,1.0,1,1.0,4178.0
280,22.0,hard,prediction,Experiment 2 (test preview),13,visible,3.0,b,2.0,a,,1.0,2.0,2.0,2,1.0,4277.0
280,22.0,hard,prediction,Experiment 2 (test preview),14,visible,2.0,b,1.0,a,,3.0,1.0,1.0,3,0.0,4516.0
280,22.0,hard,prediction,Experiment 2 (test preview),15,hidden,2.0,a,,a,,2.0,3.0,2.0,2,1.0,2258.0
280,22.0,hard,prediction,Experiment 2 (test preview),16,hidden,1.0,b,,a,,3.0,2.0,2.0,2,1.0,4292.0
280,22.0,hard,prediction,Experiment 2 (test preview),17,visible,1.0,b,3.0,b,,3.0,0.0,3.0,0,0.0,5438.0
280,22.0,hard,prediction,Experiment 2 (test preview),18,visible,0.0,b,3.0,a,,2.0,1.0,2.0,2,1.0,4207.0
280,22.0,hard,prediction,Experiment 2 (test preview),19,hidden,0.0,a,,a,,1.0,0.0,0.0,0,1.0,3144.0
280,22.0,hard,prediction,Experiment 2 (test preview),20,hidden,2.0,b,,b,,1.0,3.0,3.0,1,0.0,4069.0
282,22.0,hard,prediction,Experiment 2 (test preview),1,visible,1.0,a,0.0,a,,3.0,0.0,3.0,0,0.0,17337.280999952345
282,22.0,hard,prediction,Experiment 2 (test preview),2,visible,2.0,b,1.0,a,,3.0,1.0,1.0,1,1.0,6304.041999928479
282,22.0,hard,prediction,Experiment 2 (test preview),3,visible,3.0,b,2.0,a,,1.0,2.0,2.0,2,1.0,10001.223999952315
282,22.0,hard,prediction,Experiment 2 (test preview),4,visible,2.0,a,2.0,b,,0.0,3.0,0.0,0,1.0,6292.783999904641
282,22.0,hard,prediction,Experiment 2 (test preview),5,hidden,1.0,b,,a,,3.0,0.0,0.0,0,1.0,9695.873999904608
282,22.0,hard,prediction,Experiment 2 (test preview),6,hidden,1.0,a,,a,,3.0,2.0,3.0,2,0.0,9597.287000000011
282,22.0,hard,prediction,Experiment 2 (test preview),7,hidden,3.0,b,,b,,1.0,3.0,1.0,1,1.0,12350.712999999989
282,22.0,hard,prediction,Experiment 2 (test preview),8,hidden,2.0,b,,b,,1.0,3.0,3.0,3,1.0,11446.92199995229
282,22.0,hard,prediction,Experiment 2 (test preview),9,visible,3.0,a,0.0,b,,3.0,0.0,3.0,3,1.0,9884.28399997612
282,22.0,hard,prediction,Experiment 2 (test preview),10,visible,2.0,b,1.0,b,,1.0,0.0,1.0,0,0.0,4483.135999928461
282,22.0,hard,prediction,Experiment 2 (test preview),11,hidden,0.0,a,,a,,1.0,0.0,0.0,0,1.0,15774.416999952286
282,22.0,hard,prediction,Experiment 2 (test preview),12,visible,0.0,b,3.0,a,,2.0,1.0,2.0,1,0.0,14130.84899992845
282,22.0,hard,prediction,Experiment 2 (test preview),13,visible,0.0,a,3.0,b,,2.0,1.0,2.0,1,0.0,11550.06799999997
282,22.0,hard,prediction,Experiment 2 (test preview),14,hidden,3.0,a,,a,,0.0,3.0,3.0,0,0.0,5395.949000000022
282,22.0,hard,prediction,Experiment 2 (test preview),15,hidden,1.0,b,,a,,3.0,2.0,2.0,3,0.0,8272.35399995232
282,22.0,hard,prediction,Experiment 2 (test preview),16,visible,1.0,b,3.0,b,,3.0,0.0,3.0,0,0.0,10169.638999952353
282,22.0,hard,prediction,Experiment 2 (test preview),17,hidden,3.0,a,,b,,2.0,3.0,3.0,3,1.0,5834.591999999946
282,22.0,hard,prediction,Experiment 2 (test preview),18,hidden,2.0,a,,b,,1.0,2.0,1.0,2,0.0,5609.613999952329
282,22.0,hard,prediction,Experiment 2 (test preview),19,visible,0.0,a,3.0,a,,3.0,0.0,0.0,3,0.0,12805.691999952309
282,22.0,hard,prediction,Experiment 2 (test preview),20,hidden,2.0,a,,a,,2.0,3.0,2.0,2,1.0,4289.700999928522
279,22.0,hard,prediction,Experiment 2 (test preview),1,visible,2.0,b,1.0,b,,1.0,0.0,1.0,0,0.0,2191.2800000029965
279,22.0,hard,prediction,Experiment 2 (test preview),2,hidden,1.0,b,,a,,3.0,0.0,0.0,3,0.0,5051.492000002996
279,22.0,hard,prediction,Experiment 2 (test preview),3,hidden,1.0,b,,a,,3.0,2.0,2.0,3,0.0,6670.119000000006
279,22.0,hard,prediction,Experiment 2 (test preview),4,visible,2.0,a,2.0,b,,0.0,3.0,0.0,3,0.0,4974.443999998504
279,22.0,hard,prediction,Experiment 2 (test preview),5,visible,1.0,b,3.0,b,,3.0,0.0,3.0,0,0.0,1698.088999999978
279,22.0,hard,prediction,Experiment 2 (test preview),6,hidden,0.0,a,,a,,1.0,0.0,0.0,1,0.0,3246.378999998502
279,22.0,hard,prediction,Experiment 2 (test preview),7,visible,0.0,a,3.0,b,,2.0,1.0,2.0,1,0.0,3851.445999997028
279,22.0,hard,prediction,Experiment 2 (test preview),8,hidden,2.0,a,,b,,1.0,2.0,1.0,1,1.0,5517.3499999985215
279,22.0,hard,prediction,Experiment 2 (test preview),9,visible,3.0,b,2.0,a,,1.0,2.0,2.0,2,1.0,2721.9619999999995
279,22.0,hard,prediction,Experiment 2 (test preview),10,visible,2.0,b,1.0,a,,3.0,1.0,1.0,3,0.0,2175.438000000024
279,22.0,hard,prediction,Experiment 2 (test preview),11,visible,0.0,b,3.0,a,,2.0,1.0,2.0,1,0.0,2083.7319999985048
279,22.0,hard,prediction,Experiment 2 (test preview),12,hidden,2.0,a,,a,,2.0,3.0,2.0,3,0.0,4125.751000001503
279,22.0,hard,prediction,Experiment 2 (test preview),13,hidden,2.0,b,,b,,1.0,3.0,3.0,1,0.0,2705.3240000000224
279,22.0,hard,prediction,Experiment 2 (test preview),14,visible,1.0,a,0.0,a,,3.0,0.0,3.0,3,1.0,2482.316999999981
279,22.0,hard,prediction,Experiment 2 (test preview),15,hidden,3.0,a,,a,,0.0,3.0,3.0,3,1.0,3924.3149999970337
279,22.0,hard,prediction,Experiment 2 (test preview),16,hidden,3.0,b,,b,,1.0,3.0,1.0,1,1.0,2866.197000001499
279,22.0,hard,prediction,Experiment 2 (test preview),17,hidden,3.0,a,,b,,2.0,3.0,3.0,2,0.0,1563.3360000029788
279,22.0,hard,prediction,Experiment 2 (test preview),18,visible,0.0,a,3.0,a,,3.0,0.0,0.0,3,0.0,3261.906999997038
279,22.0,hard,prediction,Experiment 2 (test preview),19,visible,3.0,a,0.0,b,,3.0,0.0,3.0,3,1.0,4297.022000001511
279,22.0,hard,prediction,Experiment 2 (test preview),20,hidden,1.0,a,,a,,3.0,2.0,3.0,2,0.0,1222.1339999969932
283,22.0,hard,prediction,Experiment 2 (test preview),1,hidden,2.0,a,,a,,2.0,3.0,2.0,3,0.0,7930.993999997037
283,22.0,hard,prediction,Experiment 2 (test preview),2,hidden,2.0,b,,b,,1.0,3.0,3.0,1,0.0,11848.897999999986
283,22.0,hard,prediction,Experiment 2 (test preview),3,visible,1.0,b,3.0,b,,3.0,0.0,3.0,3,1.0,3066.438000005961
283,22.0,hard,prediction,Experiment 2 (test preview),4,hidden,0.0,a,,a,,1.0,0.0,0.0,1,0.0,8042.065000008966
283,22.0,hard,prediction,Experiment 2 (test preview),5,visible,0.0,b,3.0,a,,2.0,1.0,2.0,2,1.0,3942.40300000296
283,22.0,hard,prediction,Experiment 2 (test preview),6,hidden,2.0,a,,b,,1.0,2.0,1.0,1,1.0,3156.9260000089416
283,22.0,hard,prediction,Experiment 2 (test preview),7,visible,0.0,a,3.0,b,,2.0,1.0,2.0,2,1.0,3071.929999999993
283,22.0,hard,prediction,Experiment 2 (test preview),8,hidden,1.0,b,,a,,3.0,0.0,0.0,0,1.0,4399.185999999987
283,22.0,hard,prediction,Experiment 2 (test preview),9,visible,1.0,a,0.0,a,,3.0,0.0,3.0,0,0.0,5668.622000005969
283,22.0,hard,prediction,Experiment 2 (test preview),10,hidden,1.0,a,,a,,3.0,2.0,3.0,3,1.0,8367.547000008926
283,22.0,hard,prediction,Experiment 2 (test preview),11,hidden,1.0,b,,a,,3.0,2.0,2.0,2,1.0,2421.1959999999963
283,22.0,hard,prediction,Experiment 2 (test preview),12,visible,2.0,a,2.0,b,,0.0,3.0,0.0,0,1.0,3367.586999997031
283,22.0,hard,prediction,Experiment 2 (test preview),13,visible,2.0,b,1.0,b,,1.0,0.0,1.0,0,0.0,2425.494000002974
283,22.0,hard,prediction,Experiment 2 (test preview),14,visible,3.0,a,0.0,b,,3.0,0.0,3.0,0,0.0,1575.5350000000326
283,22.0,hard,prediction,Experiment 2 (test preview),15,visible,3.0,b,2.0,a,,1.0,2.0,2.0,2,1.0,2103.9180000060005
283,22.0,hard,prediction,Experiment 2 (test preview),16,hidden,3.0,b,,b,,1.0,3.0,1.0,1,1.0,7922.995999997016
283,22.0,hard,prediction,Experiment 2 (test preview),17,hidden,3.0,a,,a,,0.0,3.0,3.0,0,0.0,1868.6190000060012
283,22.0,hard,prediction,Experiment 2 (test preview),18,hidden,3.0,a,,b,,2.0,3.0,3.0,2,0.0,2142.378999997047
283,22.0,hard,prediction,Experiment 2 (test preview),19,visible,0.0,a,3.0,a,,3.0,0.0,0.0,3,0.0,1190.625
283,22.0,hard,prediction,Experiment 2 (test preview),20,visible,2.0,b,1.0,a,,3.0,1.0,1.0,1,1.0,1032.769000002998
122,21.0,easy,explanation,Experiment 2 (test preview),1,visible,3.0,a,1.0,b,0.0,,,1.0,1,1.0,4130.112000000081
122,21.0,easy,explanation,Experiment 2 (test preview),2,hidden,3.0,a,,b,0.0,,,1.0,1,1.0,1610.2220000000088
122,21.0,easy,explanation,Experiment 2 (test preview),3,visible,3.0,a,1.0,a,0.0,,,1.0,1,1.0,1608.5050000000049
122,21.0,easy,explanation,Experiment 2 (test preview),4,visible,3.0,a,0.0,a,2.0,,,1.0,2,0.0,1181.5
122,21.0,easy,explanation,Experiment 2 (test preview),5,hidden,0.0,b,,b,2.0,,,2.0,2,1.0,868.917000000074
122,21.0,easy,explanation,Experiment 2 (test preview),6,hidden,2.0,a,,a,2.0,,,1.0,2,0.0,1760.8289999999688
122,21.0,easy,explanation,Experiment 2 (test preview),7,hidden,3.0,a,,b,2.0,,,1.0,2,0.0,590.4250000001048
122,21.0,easy,explanation,Experiment 2 (test preview),8,hidden,0.0,a,,a,3.0,,,2.0,1,0.0,386.6509999999544
122,21.0,easy,explanation,Experiment 2 (test preview),9,visible,0.0,b,2.0,a,0.0,,,2.0,2,1.0,579.1030000001192
122,21.0,easy,explanation,Experiment 2 (test preview),10,visible,2.0,a,0.0,a,2.0,,,1.0,2,0.0,2010.5270000001185
122,21.0,easy,explanation,Experiment 2 (test preview),11,visible,2.0,a,0.0,b,2.0,,,1.0,2,0.0,451.1040000000503
122,21.0,easy,explanation,Experiment 2 (test preview),12,visible,0.0,b,2.0,b,2.0,,,2.0,2,1.0,589.7310000000289
122,21.0,easy,explanation,Experiment 2 (test preview),13,hidden,0.0,b,,a,0.0,,,2.0,2,1.0,366.5640000000713
122,21.0,easy,explanation,Experiment 2 (test preview),14,hidden,2.0,b,,b,2.0,,,2.0,2,1.0,340.9709999999613
122,21.0,easy,explanation,Experiment 2 (test preview),15,visible,0.0,a,2.0,a,0.0,,,2.0,2,1.0,618.0979999999399
122,21.0,easy,explanation,Experiment 2 (test preview),16,hidden,3.0,a,,a,2.0,,,1.0,2,0.0,319.1250000001164
122,21.0,easy,explanation,Experiment 2 (test preview),17,visible,0.0,b,2.0,a,3.0,,,2.0,2,1.0,348.261000000115
122,21.0,easy,explanation,Experiment 2 (test preview),18,visible,0.0,a,2.0,b,2.0,,,2.0,2,1.0,306.7620000001625
122,21.0,easy,explanation,Experiment 2 (test preview),19,hidden,0.0,a,,a,0.0,,,2.0,1,0.0,1091.7029999999795
122,21.0,easy,explanation,Experiment 2 (test preview),20,hidden,3.0,b,,a,0.0,,,2.0,2,1.0,388.394999999844
123,21.0,easy,explanation,Experiment 2 (test preview),1,hidden,3.0,a,,b,2.0,,,1.0,2,0.0,15761.19099995232
123,21.0,easy,explanation,Experiment 2 (test preview),2,visible,0.0,b,2.0,a,3.0,,,2.0,2,1.0,3609.966999928467
123,21.0,easy,explanation,Experiment 2 (test preview),3,visible,3.0,a,1.0,a,0.0,,,1.0,1,1.0,8768.642999999982
123,21.0,easy,explanation,Experiment 2 (test preview),4,hidden,0.0,b,,b,2.0,,,2.0,2,1.0,3012.063999976148
123,21.0,easy,explanation,Experiment 2 (test preview),5,visible,2.0,a,0.0,a,2.0,,,1.0,1,1.0,2777.462999928452
123,21.0,easy,explanation,Experiment 2 (test preview),6,hidden,0.0,a,,a,3.0,,,2.0,1,0.0,6093.11799992848
123,21.0,easy,explanation,Experiment 2 (test preview),7,visible,2.0,a,0.0,b,2.0,,,1.0,2,0.0,1849.5259999523405
123,21.0,easy,explanation,Experiment 2 (test preview),8,hidden,0.0,a,,a,0.0,,,2.0,2,1.0,3230.38000002387
123,21.0,easy,explanation,Experiment 2 (test preview),9,hidden,2.0,b,,b,2.0,,,2.0,2,1.0,348.4349999523256
123,21.0,easy,explanation,Experiment 2 (test preview),10,visible,3.0,a,0.0,a,2.0,,,1.0,1,1.0,13928.003999928478
123,21.0,easy,explanation,Experiment 2 (test preview),11,visible,0.0,a,2.0,b,2.0,,,2.0,2,1.0,424.9029999999912
123,21.0,easy,explanation,Experiment 2 (test preview),12,hidden,3.0,b,,a,0.0,,,2.0,2,1.0,10025.214000023843
123,21.0,easy,explanation,Experiment 2 (test preview),13,visible,0.0,b,2.0,a,0.0,,,2.0,2,1.0,3020.521000023815
123,21.0,easy,explanation,Experiment 2 (test preview),14,hidden,0.0,b,,a,0.0,,,2.0,1,0.0,4649.209000023839
123,21.0,easy,explanation,Experiment 2 (test preview),15,visible,0.0,b,2.0,b,2.0,,,2.0,2,1.0,2781.070999976131
123,21.0,easy,explanation,Experiment 2 (test preview),16,visible,3.0,a,1.0,b,0.0,,,1.0,1,1.0,3597.1290000238223
123,21.0,easy,explanation,Experiment 2 (test preview),17,hidden,2.0,a,,a,2.0,,,1.0,2,0.0,15661.115000023856
123,21.0,easy,explanation,Experiment 2 (test preview),18,visible,0.0,a,2.0,a,0.0,,,2.0,1,0.0,3224.912999976193
123,21.0,easy,explanation,Experiment 2 (test preview),19,hidden,3.0,a,,a,2.0,,,1.0,2,0.0,3538.9999999522697
123,21.0,easy,explanation,Experiment 2 (test preview),20,hidden,3.0,a,,b,0.0,,,1.0,1,1.0,3659.26600002381
124,21.0,easy,explanation,Experiment 2 (test preview),1,hidden,0.0,b,,a,0.0,,,2.0,2,1.0,1299.371999999974
124,21.0,easy,explanation,Experiment 2 (test preview),2,visible,3.0,a,1.0,b,0.0,,,1.0,2,0.0,765.6280000000261
124,21.0,easy,explanation,Experiment 2 (test preview),3,hidden,0.0,a,,a,0.0,,,2.0,1,0.0,526.9889999642619
124,21.0,easy,explanation,Experiment 2 (test preview),4,visible,0.0,b,2.0,a,0.0,,,2.0,2,1.0,1807.4489999642249
124,21.0,easy,explanation,Experiment 2 (test preview),5,visible,3.0,a,0.0,a,2.0,,,1.0,1,1.0,1411.9539999642293
124,21.0,easy,explanation,Experiment 2 (test preview),6,visible,0.0,a,2.0,a,0.0,,,2.0,1,0.0,1747.0109999999986
124,21.0,easy,explanation,Experiment 2 (test preview),7,visible,0.0,b,2.0,b,2.0,,,2.0,2,1.0,482.8359999761451
124,21.0,easy,explanation,Experiment 2 (test preview),8,hidden,2.0,b,,b,2.0,,,2.0,2,1.0,419.07499996421393
124,21.0,easy,explanation,Experiment 2 (test preview),9,hidden,3.0,a,,a,2.0,,,1.0,1,1.0,367.7269999642158
124,21.0,easy,explanation,Experiment 2 (test preview),10,visible,3.0,a,1.0,a,0.0,,,1.0,1,1.0,482.7289999999921
124,21.0,easy,explanation,Experiment 2 (test preview),11,hidden,3.0,a,,b,2.0,,,1.0,1,1.0,3943.02200001193
124,21.0,easy,explanation,Experiment 2 (test preview),12,hidden,0.0,b,,b,2.0,,,2.0,2,1.0,373.5979999999981
124,21.0,easy,explanation,Experiment 2 (test preview),13,hidden,3.0,b,,a,0.0,,,2.0,2,1.0,1894.6939999761528
124,21.0,easy,explanation,Experiment 2 (test preview),14,visible,2.0,a,0.0,b,2.0,,,1.0,1,1.0,3869.251999964239
124,21.0,easy,explanation,Experiment 2 (test preview),15,visible,2.0,a,0.0,a,2.0,,,1.0,1,1.0,492.9749999999767
124,21.0,easy,explanation,Experiment 2 (test preview),16,visible,0.0,b,2.0,a,3.0,,,2.0,1,0.0,706.7999999999884
124,21.0,easy,explanation,Experiment 2 (test preview),17,hidden,0.0,a,,a,3.0,,,2.0,2,1.0,1916.7159999642167
124,21.0,easy,explanation,Experiment 2 (test preview),18,hidden,3.0,a,,b,0.0,,,1.0,2,0.0,3556.534999964235
124,21.0,easy,explanation,Experiment 2 (test preview),19,visible,0.0,a,2.0,b,2.0,,,2.0,1,0.0,1485.8209999761311
124,21.0,easy,explanation,Experiment 2 (test preview),20,hidden,2.0,a,,a,2.0,,,1.0,1,1.0,2095.919999999984
131,21.0,easy,explanation,Experiment 2 (test preview),1,hidden,0.0,a,,a,0.0,,,2.0,2,1.0,1465.9500000119442
131,21.0,easy,explanation,Experiment 2 (test preview),2,visible,3.0,a,0.0,a,2.0,,,1.0,1,1.0,2470.234000047669
131,21.0,easy,explanation,Experiment 2 (test preview),3,visible,0.0,b,2.0,a,3.0,,,2.0,1,0.0,984.9040000477108
131,21.0,easy,explanation,Experiment 2 (test preview),4,hidden,0.0,b,,b,2.0,,,2.0,1,0.0,3176.1890000119456
131,21.0,easy,explanation,Experiment 2 (test preview),5,hidden,2.0,b,,b,2.0,,,2.0,2,1.0,1350.0730000119074
131,21.0,easy,explanation,Experiment 2 (test preview),6,visible,2.0,a,0.0,a,2.0,,,1.0,2,0.0,890.1950000119396
131,21.0,easy,explanation,Experiment 2 (test preview),7,visible,0.0,a,2.0,b,2.0,,,2.0,2,1.0,2175.148000023852
131,21.0,easy,explanation,Experiment 2 (test preview),8,visible,3.0,a,1.0,a,0.0,,,1.0,1,1.0,2875.467000000004
131,21.0,easy,explanation,Experiment 2 (test preview),9,visible,0.0,b,2.0,a,0.0,,,2.0,2,1.0,3106.440000011935
131,21.0,easy,explanation,Experiment 2 (test preview),10,hidden,3.0,a,,b,2.0,,,1.0,1,1.0,1382.6210000119172
131,21.0,easy,explanation,Experiment 2 (test preview),11,visible,3.0,a,1.0,b,0.0,,,1.0,2,0.0,1668.542000047688
131,21.0,easy,explanation,Experiment 2 (test preview),12,hidden,3.0,b,,a,0.0,,,2.0,1,0.0,1125.731000047701
131,21.0,easy,explanation,Experiment 2 (test preview),13,hidden,0.0,a,,a,3.0,,,2.0,2,1.0,2077.951000011933
131,21.0,easy,explanation,Experiment 2 (test preview),14,visible,0.0,a,2.0,a,0.0,,,2.0,2,1.0,1534.2950000357814
131,21.0,easy,explanation,Experiment 2 (test preview),15,hidden,0.0,b,,a,0.0,,,2.0,2,1.0,2496.370000035735
131,21.0,easy,explanation,Experiment 2 (test preview),16,hidden,2.0,a,,a,2.0,,,1.0,1,1.0,2302.722000023816
131,21.0,easy,explanation,Experiment 2 (test preview),17,hidden,3.0,a,,a,2.0,,,1.0,1,1.0,5702.681000011915
131,21.0,easy,explanation,Experiment 2 (test preview),18,visible,0.0,b,2.0,b,2.0,,,2.0,1,0.0,1108.3440000476548
131,21.0,easy,explanation,Experiment 2 (test preview),19,hidden,3.0,a,,b,0.0,,,1.0,2,0.0,1924.5480000238167
131,21.0,easy,explanation,Experiment 2 (test preview),20,visible,2.0,a,0.0,b,2.0,,,1.0,2,0.0,1669.4920000476995
125,21.0,easy,explanation,Experiment 2 (test preview),1,hidden,0.0,b,,a,0.0,,,2.0,2,1.0,12104.0
125,21.0,easy,explanation,Experiment 2 (test preview),2,visible,2.0,a,0.0,a,2.0,,,1.0,2,0.0,8421.0
125,21.0,easy,explanation,Experiment 2 (test preview),3,hidden,0.0,a,,a,0.0,,,2.0,1,0.0,637.0
125,21.0,easy,explanation,Experiment 2 (test preview),4,hidden,0.0,b,,b,2.0,,,2.0,1,0.0,9521.0
125,21.0,easy,explanation,Experiment 2 (test preview),5,visible,2.0,a,0.0,b,2.0,,,1.0,1,1.0,1104.0
125,21.0,easy,explanation,Experiment 2 (test preview),6,visible,3.0,a,1.0,a,0.0,,,1.0,2,0.0,1088.0
125,21.0,easy,explanation,Experiment 2 (test preview),7,visible,0.0,a,2.0,b,2.0,,,2.0,2,1.0,2220.0
