participant_id,fsm_number,fsm_type,test_condition,learning_condition,trial_number,trial_type,state_1,response_1,state_2,response_2,state_3,option_1,option_2,correctResponse,response,response_correct,response_time
328,21.0,easy,explanation,Experiment 2 (test preview),1,visible,3.0,a,1.0,b,0.0,,,1.0,1,1.0,4130.112000000081
328,21.0,easy,explanation,Experiment 2 (test preview),2,hidden,3.0,a,,b,0.0,,,1.0,1,1.0,1610.2220000000088
328,21.0,easy,explanation,Experiment 2 (test preview),3,visible,3.0,a,1.0,a,0.0,,,1.0,1,1.0,1608.5050000000049
328,21.0,easy,explanation,Experiment 2 (test preview),4,visible,3.0,a,0.0,a,2.0,,,1.0,2,0.0,1181.5
328,21.0,easy,explanation,Experiment 2 (test preview),5,hidden,0.0,b,,b,2.0,,,2.0,2,1.0,868.917000000074
328,21.0,easy,explanation,Experiment 2 (test preview),6,hidden,2.0,a,,a,2.0,,,1.0,2,0.0,1760.8289999999688
328,21.0,easy,explanation,Experiment 2 (test preview),7,hidden,3.0,a,,b,2.0,,,1.0,2,0.0,590.4250000001048
328,21.0,easy,explanation,Experiment 2 (test preview),8,hidden,0.0,a,,a,3.0,,,2.0,1,0.0,386.6509999999544
328,21.0,easy,explanation,Experiment 2 (test preview),9,visible,0.0,b,2.0,a,0.0,,,2.0,2,1.0,579.1030000001192
328,21.0,easy,explanation,Experiment 2 (test preview),10,visible,2.0,a,0.0,a,2.0,,,1.0,2,0.0,2010.5270000001185
328,21.0,easy,explanation,Experiment 2 (test preview),11,visible,2.0,a,0.0,b,2.0,,,1.0,2,0.0,451.1040000000503
328,21.0,easy,explanation,Experiment 2 (test preview),12,visible,0.0,b,2.0,b,2.0,,,2.0,2,1.0,589.7310000000289
328,21.0,easy,explanation,Experiment 2 (test preview),13,hidden,0.0,b,,a,0.0,,,2.0,2,1.0,366.5640000000713
328,21.0,easy,explanation,Experiment 2 (test preview),14,hidden,2.0,b,,b,2.0,,,2.0,2,1.0,340.9709999999613
328,21.0,easy,explanation,Experiment 2 (test preview),15,visible,0.0,a,2.0,a,0.0,,,2.0,2,1.0,618.0979999999399
328,21.0,easy,explanation,Experiment 2 (test preview),16,hidden,3.0,a,,a,2.0,,,1.0,2,0.0,319.1250000001164
328,21.0,easy,explanation,Experiment 2 (test preview),17,visible,0.0,b,2.0,a,3.0,,,2.0,2,1.0,348.261000000115
328,21.0,easy,explanation,Experiment 2 (test preview),18,visible,0.0,a,2.0,b,2.0,,,2.0,2,1.0,306.7620000001625
328,21.0,easy,explanation,Experiment 2 (test preview),19,hidden,0.0,a,,a,0.0,,,2.0,1,0.0,1091.7029999999795
328,21.0,easy,explanation,Experiment 2 (test preview),20,hidden,3.0,b,,a,0.0,,,2.0,2,1.0,388.394999999844
329,21.0,easy,explanation,Experiment 2 (test preview),1,hidden,3.0,a,,b,2.0,,,1.0,2,0.0,15761.19099995232
329,21.0,easy,explanation,Experiment 2 (test preview),2,visible,0.0,b,2.0,a,3.0,,,2.0,2,1.0,3609.966999928467
329,21.0,easy,explanation,Experiment 2 (test preview),3,visible,3.0,a,1.0,a,0.0,,,1.0,1,1.0,8768.642999999982
329,21.0,easy,explanation,Experiment 2 (test preview),4,hidden,0.0,b,,b,2.0,,,2.0,2,1.0,3012.063999976148
329,21.0,easy,explanation,Experiment 2 (test preview),5,visible,2.0,a,0.0,a,2.0,,,1.0,1,1.0,2777.462999928452
329,21.0,easy,explanation,Experiment 2 (test preview),6,hidden,0.0,a,,a,3.0,,,2.0,1,0.0,6093.11799992848
329,21.0,easy,explanation,Experiment 2 (test preview),7,visible,2.0,a,0.0,b,2.0,,,1.0,2,0.0,1849.5259999523405
329,21.0,easy,explanation,Experiment 2 (test preview),8,hidden,0.0,a,,a,0.0,,,2.0,2,1.0,3230.38000002387
329,21.0,easy,explanation,Experiment 2 (test preview),9,hidden,2.0,b,,b,2.0,,,2.0,2,1.0,348.4349999523256
329,21.0,easy,explanation,Experiment 2 (test preview),10,visible,3.0,a,0.0,a,2.0,,,1.0,1,1.0,13928.003999928478
329,21.0,easy,explanation,Experiment 2 (test preview),11,visible,0.0,a,2.0,b,2.0,,,2.0,2,1.0,424.9029999999912
329,21.0,easy,explanation,Experiment 2 (test preview),12,hidden,3.0,b,,a,0.0,,,2.0,2,1.0,10025.214000023843
329,21.0,easy,explanation,Experiment 2 (test preview),13,visible,0.0,b,2.0,a,0.0,,,2.0,2,1.0,3020.521000023815
329,21.0,easy,explanation,Experiment 2 (test preview),14,hidden,0.0,b,,a,0.0,,,2.0,1,0.0,4649.209000023839
329,21.0,easy,explanation,Experiment 2 (test preview),15,visible,0.0,b,2.0,b,2.0,,,2.0,2,1.0,2781.070999976131
329,21.0,easy,explanation,Experiment 2 (test preview),16,visible,3.0,a,1.0,b,0.0,,,1.0,1,1.0,3597.1290000238223
329,21.0,easy,explanation,Experiment 2 (test preview),17,hidden,2.0,a,,a,2.0,,,1.0,2,0.0,15661.115000023856
329,21.0,easy,explanation,Experiment 2 (test preview),18,visible,0.0,a,2.0,a,0.0,,,2.0,1,0.0,3224.912999976193
329,21.0,easy,explanation,Experiment 2 (test preview),19,hidden,3.0,a,,a,2.0,,,1.0,2,0.0,3538.9999999522697
329,21.0,easy,explanation,Experiment 2 (test preview),20,hidden,3.0,a,,b,0.0,,,1.0,1,1.0,3659.26600002381
330,21.0,easy,explanation,Experiment 2 (test preview),1,hidden,0.0,b,,a,0.0,,,2.0,2,1.0,1299.371999999974
330,21.0,easy,explanation,Experiment 2 (test preview),2,visible,3.0,a,1.0,b,0.0,,,1.0,2,0.0,765.6280000000261
330,21.0,easy,explanation,Experiment 2 (test preview),3,hidden,0.0,a,,a,0.0,,,2.0,1,0.0,526.9889999642619
330,21.0,easy,explanation,Experiment 2 (test preview),4,visible,0.0,b,2.0,a,0.0,,,2.0,2,1.0,1807.4489999642249
330,21.0,easy,explanation,Experiment 2 (test preview),5,visible,3.0,a,0.0,a,2.0,,,1.0,1,1.0,1411.9539999642293
330,21.0,easy,explanation,Experiment 2 (test preview),6,visible,0.0,a,2.0,a,0.0,,,2.0,1,0.0,1747.0109999999986
330,21.0,easy,explanation,Experiment 2 (test preview),7,visible,0.0,b,2.0,b,2.0,,,2.0,2,1.0,482.8359999761451
330,21.0,easy,explanation,Experiment 2 (test preview),8,hidden,2.0,b,,b,2.0,,,2.0,2,1.0,419.07499996421393
330,21.0,easy,explanation,Experiment 2 (test preview),9,hidden,3.0,a,,a,2.0,,,1.0,1,1.0,367.7269999642158
330,21.0,easy,explanation,Experiment 2 (test preview),10,visible,3.0,a,1.0,a,0.0,,,1.0,1,1.0,482.7289999999921
330,21.0,easy,explanation,Experiment 2 (test preview),11,hidden,3.0,a,,b,2.0,,,1.0,1,1.0,3943.02200001193
330,21.0,easy,explanation,Experiment 2 (test preview),12,hidden,0.0,b,,b,2.0,,,2.0,2,1.0,373.5979999999981
330,21.0,easy,explanation,Experiment 2 (test preview),13,hidden,3.0,b,,a,0.0,,,2.0,2,1.0,1894.6939999761528
330,21.0,easy,explanation,Experiment 2 (test preview),14,visible,2.0,a,0.0,b,2.0,,,1.0,1,1.0,3869.251999964239
330,21.0,easy,explanation,Experiment 2 (test preview),15,visible,2.0,a,0.0,a,2.0,,,1.0,1,1.0,492.9749999999767
330,21.0,easy,explanation,Experiment 2 (test preview),16,visible,0.0,b,2.0,a,3.0,,,2.0,1,0.0,706.7999999999884
330,21.0,easy,explanation,Experiment 2 (test preview),17,hidden,0.0,a,,a,3.0,,,2.0,2,1.0,1916.7159999642167
330,21.0,easy,explanation,Experiment 2 (test preview),18,hidden,3.0,a,,b,0.0,,,1.0,2,0.0,3556.534999964235
330,21.0,easy,explanation,Experiment 2 (test preview),19,visible,0.0,a,2.0,b,2.0,,,2.0,1,0.0,1485.8209999761311
330,21.0,easy,explanation,Experiment 2 (test preview),20,hidden,2.0,a,,a,2.0,,,1.0,1,1.0,2095.919999999984
331,21.0,easy,explanation,Experiment 2 (test preview),1,hidden,0.0,a,,a,0.0,,,2.0,2,1.0,1465.9500000119442
331,21.0,easy,explanation,Experiment 2 (test preview),2,visible,3.0,a,0.0,a,2.0,,,1.0,1,1.0,2470.234000047669
331,21.0,easy,explanation,Experiment 2 (test preview),3,visible,0.0,b,2.0,a,3.0,,,2.0,1,0.0,984.9040000477108
331,21.0,easy,explanation,Experiment 2 (test preview),4,hidden,0.0,b,,b,2.0,,,2.0,1,0.0,3176.1890000119456
331,21.0,easy,explanation,Experiment 2 (test preview),5,hidden,2.0,b,,b,2.0,,,2.0,2,1.0,1350.0730000119074
331,21.0,easy,explanation,Experiment 2 (test preview),6,visible,2.0,a,0.0,a,2.0,,,1.0,2,0.0,890.1950000119396
331,21.0,easy,explanation,Experiment 2 (test preview),7,visible,0.0,a,2.0,b,2.0,,,2.0,2,1.0,2175.148000023852
331,21.0,easy,explanation,Experiment 2 (test preview),8,visible,3.0,a,1.0,a,0.0,,,1.0,1,1.0,2875.467000000004
331,21.0,easy,explanation,Experiment 2 (test preview),9,visible,0.0,b,2.0,a,0.0,,,2.0,2,1.0,3106.440000011935
331,21.0,easy,explanation,Experiment 2 (test preview),10,hidden,3.0,a,,b,2.0,,,1.0,1,1.0,1382.6210000119172
331,21.0,easy,explanation,Experiment 2 (test preview),11,visible,3.0,a,1.0,b,0.0,,,1.0,2,0.0,1668.542000047688
331,21.0,easy,explanation,Experiment 2 (test preview),12,hidden,3.0,b,,a,0.0,,,2.0,1,0.0,1125.731000047701
331,21.0,easy,explanation,Experiment 2 (test preview),13,hidden,0.0,a,,a,3.0,,,2.0,2,1.0,2077.951000011933
331,21.0,easy,explanation,Experiment 2 (test preview),14,visible,0.0,a,2.0,a,0.0,,,2.0,2,1.0,1534.2950000357814
331,21.0,easy,explanation,Experiment 2 (test preview),15,hidden,0.0,b,,a,0.0,,,2.0,2,1.0,2496.370000035735
331,21.0,easy,explanation,Experiment 2 (test preview),16,hidden,2.0,a,,a,2.0,,,1.0,1,1.0,2302.722000023816
331,21.0,easy,explanation,Experiment 2 (test preview),17,hidden,3.0,a,,a,2.0,,,1.0,1,1.0,5702.681000011915
331,21.0,easy,explanation,Experiment 2 (test preview),18,visible,0.0,b,2.0,b,2.0,,,2.0,1,0.0,1108.3440000476548
331,21.0,easy,explanation,Experiment 2 (test preview),19,hidden,3.0,a,,b,0.0,,,1.0,2,0.0,1924.5480000238167
331,21.0,easy,explanation,Experiment 2 (test preview),20,visible,2.0,a,0.0,b,2.0,,,1.0,2,0.0,1669.4920000476995
332,21.0,easy,explanation,Experiment 2 (test preview),1,hidden,0.0,b,,a,0.0,,,2.0,2,1.0,12104.0
332,21.0,easy,explanation,Experiment 2 (test preview),2,visible,2.0,a,0.0,a,2.0,,,1.0,2,0.0,8421.0
332,21.0,easy,explanation,Experiment 2 (test preview),3,hidden,0.0,a,,a,0.0,,,2.0,1,0.0,637.0
332,21.0,easy,explanation,Experiment 2 (test preview),4,hidden,0.0,b,,b,2.0,,,2.0,1,0.0,9521.0
332,21.0,easy,explanation,Experiment 2 (test preview),5,visible,2.0,a,0.0,b,2.0,,,1.0,1,1.0,1104.0
332,21.0,easy,explanation,Experiment 2 (test preview),6,visible,3.0,a,1.0,a,0.0,,,1.0,2,0.0,1088.0
332,21.0,easy,explanation,Experiment 2 (test preview),7,visible,0.0,a,2.0,b,2.0,,,2.0,2,1.0,2220.0
332,21.0,easy,explanation,Experiment 2 (test preview),8,hidden,3.0,b,,a,0.0,,,2.0,1,0.0,5154.0
332,21.0,easy,explanation,Experiment 2 (test preview),9,hidden,2.0,a,,a,2.0,,,1.0,1,1.0,5171.0
332,21.0,easy,explanation,Experiment 2 (test preview),10,visible,0.0,a,2.0,a,0.0,,,2.0,2,1.0,720.0
332,21.0,easy,explanation,Experiment 2 (test preview),11,hidden,3.0,a,,b,2.0,,,1.0,2,0.0,3088.0
332,21.0,easy,explanation,Experiment 2 (test preview),12,hidden,2.0,b,,b,2.0,,,2.0,1,0.0,471.0
332,21.0,easy,explanation,Experiment 2 (test preview),13,visible,0.0,b,2.0,b,2.0,,,2.0,2,1.0,637.0
332,21.0,easy,explanation,Experiment 2 (test preview),14,visible,0.0,b,2.0,a,0.0,,,2.0,2,1.0,821.0
332,21.0,easy,explanation,Experiment 2 (test preview),15,visible,3.0,a,0.0,a,2.0,,,1.0,1,1.0,1421.0
332,21.0,easy,explanation,Experiment 2 (test preview),16,hidden,3.0,a,,b,0.0,,,1.0,1,1.0,3721.0
332,21.0,easy,explanation,Experiment 2 (test preview),17,hidden,3.0,a,,a,2.0,,,1.0,2,0.0,1421.0
332,21.0,easy,explanation,Experiment 2 (test preview),18,visible,0.0,b,2.0,a,3.0,,,2.0,2,1.0,22205.0
332,21.0,easy,explanation,Experiment 2 (test preview),19,visible,3.0,a,1.0,b,0.0,,,1.0,2,0.0,671.0
332,21.0,easy,explanation,Experiment 2 (test preview),20,hidden,0.0,a,,a,3.0,,,2.0,1,0.0,655.0
333,21.0,easy,explanation,Experiment 2 (test preview),1,hidden,3.0,b,,a,0.0,,,2.0,2,1.0,2675.539999986533
333,21.0,easy,explanation,Experiment 2 (test preview),2,visible,0.0,a,2.0,a,0.0,,,2.0,1,0.0,1108.8560000094585
333,21.0,easy,explanation,Experiment 2 (test preview),3,visible,0.0,a,2.0,b,2.0,,,2.0,1,0.0,357.40699999639764
333,21.0,easy,explanation,Experiment 2 (test preview),4,visible,3.0,a,1.0,b,0.0,,,1.0,1,1.0,440.5999999718042
333,21.0,easy,explanation,Experiment 2 (test preview),5,visible,3.0,a,1.0,a,0.0,,,1.0,2,0.0,315.61999997799285
333,21.0,easy,explanation,Experiment 2 (test preview),6,hidden,3.0,a,,b,2.0,,,1.0,2,0.0,350.21600000420585
333,21.0,easy,explanation,Experiment 2 (test preview),7,visible,2.0,a,0.0,a,2.0,,,1.0,1,1.0,353.35799997416325
333,21.0,easy,explanation,Experiment 2 (test preview),8,visible,3.0,a,0.0,a,2.0,,,1.0,1,1.0,518.8509999932721
333,21.0,easy,explanation,Experiment 2 (test preview),9,visible,2.0,a,0.0,b,2.0,,,1.0,2,0.0,165.3899999880232
333,21.0,easy,explanation,Experiment 2 (test preview),10,hidden,0.0,b,,b,2.0,,,2.0,1,0.0,1025.1759999609783
333,21.0,easy,explanation,Experiment 2 (test preview),11,visible,0.0,b,2.0,a,3.0,,,2.0,2,1.0,317.6999999807449
333,21.0,easy,explanation,Experiment 2 (test preview),12,hidden,0.0,b,,a,0.0,,,2.0,2,1.0,340.3909999751486
333,21.0,easy,explanation,Experiment 2 (test preview),13,visible,0.0,b,2.0,b,2.0,,,2.0,2,1.0,393.9610000042012
333,21.0,easy,explanation,Experiment 2 (test preview),14,hidden,2.0,a,,a,2.0,,,1.0,1,1.0,414.022000005818
333,21.0,easy,explanation,Experiment 2 (test preview),15,hidden,3.0,a,,b,0.0,,,1.0,1,1.0,327.4970000012545
333,21.0,easy,explanation,Experiment 2 (test preview),16,hidden,0.0,a,,a,3.0,,,2.0,2,1.0,323.20100000407547
333,21.0,easy,explanation,Experiment 2 (test preview),17,hidden,0.0,a,,a,0.0,,,2.0,1,0.0,126.04599999729544
333,21.0,easy,explanation,Experiment 2 (test preview),18,visible,0.0,b,2.0,a,0.0,,,2.0,1,0.0,169.96099997079
333,21.0,easy,explanation,Experiment 2 (test preview),19,hidden,3.0,a,,a,2.0,,,1.0,2,0.0,42.58299996703863
333,21.0,easy,explanation,Experiment 2 (test preview),20,hidden,2.0,b,,b,2.0,,,2.0,2,1.0,465.29999998549465
334,21.0,easy,explanation,Experiment 2 (test preview),1,visible,0.0,b,2.0,b,2.0,,,2.0,1,0.0,2722.087999713898
334,21.0,easy,explanation,Experiment 2 (test preview),2,visible,0.0,a,2.0,b,2.0,,,2.0,1,0.0,5456.438000095368
334,21.0,easy,explanation,Experiment 2 (test preview),3,visible,0.0,a,2.0,a,0.0,,,2.0,1,0.0,556.1560000953614
334,21.0,easy,explanation,Experiment 2 (test preview),4,visible,0.0,b,2.0,a,0.0,,,2.0,2,1.0,2688.9860000953777
334,21.0,easy,explanation,Experiment 2 (test preview),5,hidden,3.0,b,,a,0.0,,,2.0,1,0.0,3805.34199990466
334,21.0,easy,explanation,Experiment 2 (test preview),6,visible,3.0,a,1.0,a,0.0,,,1.0,1,1.0,505.8680000000168
334,21.0,easy,explanation,Experiment 2 (test preview),7,hidden,2.0,a,,a,2.0,,,1.0,1,1.0,705.3649998092442
334,21.0,easy,explanation,Experiment 2 (test preview),8,hidden,0.0,a,,a,3.0,,,2.0,1,0.0,1472.9669997139135
334,21.0,easy,explanation,Experiment 2 (test preview),9,hidden,0.0,b,,a,0.0,,,2.0,2,1.0,4272.465999713924
334,21.0,easy,explanation,Experiment 2 (test preview),10,visible,0.0,b,2.0,a,3.0,,,2.0,1,0.0,556.2779997139005
334,21.0,easy,explanation,Experiment 2 (test preview),11,hidden,3.0,a,,b,0.0,,,1.0,1,1.0,522.5199999046163
334,21.0,easy,explanation,Experiment 2 (test preview),12,hidden,0.0,a,,a,0.0,,,2.0,1,0.0,372.2480000000214
334,21.0,easy,explanation,Experiment 2 (test preview),13,visible,3.0,a,0.0,a,2.0,,,1.0,1,1.0,439.4700000953744
334,21.0,easy,explanation,Experiment 2 (test preview),14,visible,2.0,a,0.0,a,2.0,,,1.0,1,1.0,588.829000000027
334,21.0,easy,explanation,Experiment 2 (test preview),15,visible,3.0,a,1.0,b,0.0,,,1.0,1,1.0,389.3269999999902
334,21.0,easy,explanation,Experiment 2 (test preview),16,hidden,3.0,a,,b,2.0,,,1.0,1,1.0,556.516999809246
334,21.0,easy,explanation,Experiment 2 (test preview),17,hidden,0.0,b,,b,2.0,,,2.0,1,0.0,389.81300000002375
334,21.0,easy,explanation,Experiment 2 (test preview),18,hidden,2.0,b,,b,2.0,,,2.0,2,1.0,2556.668999809248
334,21.0,easy,explanation,Experiment 2 (test preview),19,hidden,3.0,a,,a,2.0,,,1.0,1,1.0,455.4399998092558
334,21.0,easy,explanation,Experiment 2 (test preview),20,visible,2.0,a,0.0,b,2.0,,,1.0,1,1.0,456.0319997139159
335,21.0,easy,explanation,Experiment 2 (test preview),1,hidden,2.0,a,,a,2.0,,,1.0,1,1.0,1167.7029999761726
335,21.0,easy,explanation,Experiment 2 (test preview),2,visible,0.0,a,2.0,b,2.0,,,2.0,1,0.0,2246.283999952313
335,21.0,easy,explanation,Experiment 2 (test preview),3,hidden,0.0,b,,a,0.0,,,2.0,1,0.0,3976.052999952313
335,21.0,easy,explanation,Experiment 2 (test preview),4,visible,2.0,a,0.0,a,2.0,,,1.0,1,1.0,371.1749999761523
335,21.0,easy,explanation,Experiment 2 (test preview),5,hidden,3.0,a,,b,2.0,,,1.0,1,1.0,547.86299995234
335,21.0,easy,explanation,Experiment 2 (test preview),6,visible,0.0,b,2.0,a,3.0,,,2.0,1,0.0,1058.8279999761726
335,21.0,easy,explanation,Experiment 2 (test preview),7,hidden,0.0,a,,a,0.0,,,2.0,1,0.0,747.3929999523098
335,21.0,easy,explanation,Experiment 2 (test preview),8,visible,3.0,a,0.0,a,2.0,,,1.0,1,1.0,630.167999904661
335,21.0,easy,explanation,Experiment 2 (test preview),9,hidden,3.0,b,,a,0.0,,,2.0,1,0.0,701.6159999523079
335,21.0,easy,explanation,Experiment 2 (test preview),10,hidden,0.0,a,,a,3.0,,,2.0,1,0.0,1017.606999976153
335,21.0,easy,explanation,Experiment 2 (test preview),11,visible,2.0,a,0.0,b,2.0,,,1.0,1,1.0,991.5899999522952
335,21.0,easy,explanation,Experiment 2 (test preview),12,visible,3.0,a,1.0,b,0.0,,,1.0,1,1.0,721.2179999999935
335,21.0,easy,explanation,Experiment 2 (test preview),13,hidden,3.0,a,,a,2.0,,,1.0,1,1.0,526.8699999523233
335,21.0,easy,explanation,Experiment 2 (test preview),14,hidden,2.0,b,,b,2.0,,,2.0,1,0.0,918.5199999522883
335,21.0,easy,explanation,Experiment 2 (test preview),15,visible,0.0,b,2.0,a,0.0,,,2.0,1,0.0,2257.569999952335
335,21.0,easy,explanation,Experiment 2 (test preview),16,hidden,3.0,a,,b,0.0,,,1.0,1,1.0,937.1989999761572
335,21.0,easy,explanation,Experiment 2 (test preview),17,visible,3.0,a,1.0,a,0.0,,,1.0,1,1.0,507.3529999523307
335,21.0,easy,explanation,Experiment 2 (test preview),18,visible,0.0,a,2.0,a,0.0,,,2.0,1,0.0,666.0239999761689
335,21.0,easy,explanation,Experiment 2 (test preview),19,visible,0.0,b,2.0,b,2.0,,,2.0,1,0.0,473.6609999761568
335,21.0,easy,explanation,Experiment 2 (test preview),20,hidden,0.0,b,,b,2.0,,,2.0,1,0.0,1072.4709999522893
336,21.0,easy,explanation,Experiment 2 (test preview),1,hidden,0.0,a,,a,3.0,,,2.0,1,0.0,6262.960000000021
336,21.0,easy,explanation,Experiment 2 (test preview),2,hidden,0.0,a,,a,0.0,,,2.0,1,0.0,8791.840000000026
336,21.0,easy,explanation,Experiment 2 (test preview),3,hidden,0.0,b,,a,0.0,,,2.0,2,1.0,11006.099999999977
336,21.0,easy,explanation,Experiment 2 (test preview),4,visible,3.0,a,1.0,b,0.0,,,1.0,1,1.0,7956.919999999984
336,21.0,easy,explanation,Experiment 2 (test preview),5,hidden,3.0,a,,b,0.0,,,1.0,1,1.0,8566.520000000019
336,21.0,easy,explanation,Experiment 2 (test preview),6,hidden,3.0,a,,a,2.0,,,1.0,2,0.0,4496.739999999991
336,21.0,easy,explanation,Experiment 2 (test preview),7,hidden,3.0,a,,b,2.0,,,1.0,1,1.0,3901.260000000009
336,21.0,easy,explanation,Experiment 2 (test preview),8,visible,0.0,b,2.0,a,3.0,,,2.0,2,1.0,2669.200000000012
336,21.0,easy,explanation,Experiment 2 (test preview),9,hidden,2.0,b,,b,2.0,,,2.0,2,1.0,2579.179999999993
336,21.0,easy,explanation,Experiment 2 (test preview),10,visible,2.0,a,0.0,b,2.0,,,1.0,1,1.0,3836.4400000000014
336,21.0,easy,explanation,Experiment 2 (test preview),11,visible,3.0,a,1.0,a,0.0,,,1.0,2,0.0,5829.700000000012
336,21.0,easy,explanation,Experiment 2 (test preview),12,hidden,2.0,a,,a,2.0,,,1.0,1,1.0,1573.0200000000186
336,21.0,easy,explanation,Experiment 2 (test preview),13,visible,0.0,a,2.0,b,2.0,,,2.0,1,0.0,1222.9000000000233
336,21.0,easy,explanation,Experiment 2 (test preview),14,visible,0.0,b,2.0,a,0.0,,,2.0,2,1.0,1222.8400000000256
336,21.0,easy,explanation,Experiment 2 (test preview),15,visible,2.0,a,0.0,a,2.0,,,1.0,2,0.0,1048.179999999993
336,21.0,easy,explanation,Experiment 2 (test preview),16,hidden,3.0,b,,a,0.0,,,2.0,2,1.0,1121.039999999979
336,21.0,easy,explanation,Experiment 2 (test preview),17,visible,0.0,a,2.0,a,0.0,,,2.0,2,1.0,892.320000000007
336,21.0,easy,explanation,Experiment 2 (test preview),18,visible,3.0,a,0.0,a,2.0,,,1.0,1,1.0,2769.9799999999814
336,21.0,easy,explanation,Experiment 2 (test preview),19,hidden,0.0,b,,b,2.0,,,2.0,2,1.0,1798.859999999986
336,21.0,easy,explanation,Experiment 2 (test preview),20,visible,0.0,b,2.0,b,2.0,,,2.0,1,0.0,1793.4799999999814
337,21.0,easy,explanation,Experiment 2 (test preview),1,hidden,3.0,a,,b,2.0,,,1.0,2,0.0,4277.321000011929
337,21.0,easy,explanation,Experiment 2 (test preview),2,hidden,3.0,a,,a,2.0,,,1.0,1,1.0,3089.8570000118925
337,21.0,easy,explanation,Experiment 2 (test preview),3,visible,2.0,a,0.0,a,2.0,,,1.0,1,1.0,6965.792000047688
337,21.0,easy,explanation,Experiment 2 (test preview),4,visible,0.0,a,2.0,a,0.0,,,2.0,2,1.0,4763.48200004769
337,21.0,easy,explanation,Experiment 2 (test preview),5,visible,0.0,b,2.0,b,2.0,,,2.0,2,1.0,5955.529000011913
337,21.0,easy,explanation,Experiment 2 (test preview),6,hidden,2.0,b,,b,2.0,,,2.0,1,0.0,2598.5770000476623
337,21.0,easy,explanation,Experiment 2 (test preview),7,visible,3.0,a,1.0,b,0.0,,,1.0,2,0.0,4588.627000023844
337,21.0,easy,explanation,Experiment 2 (test preview),8,hidden,0.0,b,,b,2.0,,,2.0,1,0.0,6524.4390000357525
337,21.0,easy,explanation,Experiment 2 (test preview),9,visible,2.0,a,0.0,b,2.0,,,1.0,1,1.0,4635.119000047678
337,21.0,easy,explanation,Experiment 2 (test preview),10,hidden,3.0,a,,b,0.0,,,1.0,2,0.0,4176.604000023857
337,21.0,easy,explanation,Experiment 2 (test preview),11,hidden,2.0,a,,a,2.0,,,1.0,1,1.0,1108.433000023826
337,21.0,easy,explanation,Experiment 2 (test preview),12,visible,0.0,b,2.0,a,3.0,,,2.0,2,1.0,2263.131000035792
337,21.0,easy,explanation,Experiment 2 (test preview),13,hidden,0.0,b,,a,0.0,,,2.0,2,1.0,1423.9260000238428
337,21.0,easy,explanation,Experiment 2 (test preview),14,visible,3.0,a,0.0,a,2.0,,,1.0,1,1.0,5132.66300003574
337,21.0,easy,explanation,Experiment 2 (test preview),15,hidden,0.0,a,,a,0.0,,,2.0,1,0.0,895.1230000476935
337,21.0,easy,explanation,Experiment 2 (test preview),16,visible,0.0,a,2.0,b,2.0,,,2.0,2,1.0,604.4870000476949
337,21.0,easy,explanation,Experiment 2 (test preview),17,visible,3.0,a,1.0,a,0.0,,,1.0,2,0.0,486.50700003578095
337,21.0,easy,explanation,Experiment 2 (test preview),18,hidden,3.0,b,,a,0.0,,,2.0,2,1.0,769.7730000476586
337,21.0,easy,explanation,Experiment 2 (test preview),19,visible,0.0,b,2.0,a,0.0,,,2.0,1,0.0,644.0530000357539
337,21.0,easy,explanation,Experiment 2 (test preview),20,hidden,0.0,a,,a,3.0,,,2.0,2,1.0,843.9729999999981
338,21.0,easy,explanation,Experiment 2 (test preview),1,visible,0.0,a,2.0,a,0.0,,,2.0,2,1.0,2783.383999982121
338,21.0,easy,explanation,Experiment 2 (test preview),2,hidden,0.0,b,,a,0.0,,,2.0,1,0.0,3999.550999994041
338,21.0,easy,explanation,Experiment 2 (test preview),3,hidden,0.0,b,,b,2.0,,,2.0,2,1.0,1870.360999994038
338,21.0,easy,explanation,Experiment 2 (test preview),4,visible,0.0,b,2.0,a,3.0,,,2.0,2,1.0,1666.4649999940302
338,21.0,easy,explanation,Experiment 2 (test preview),5,visible,0.0,b,2.0,b,2.0,,,2.0,1,0.0,922.1429999940448
338,21.0,easy,explanation,Experiment 2 (test preview),6,visible,0.0,b,2.0,a,0.0,,,2.0,2,1.0,1289.5149999880814
338,21.0,easy,explanation,Experiment 2 (test preview),7,visible,2.0,a,0.0,a,2.0,,,1.0,2,0.0,4559.125999994052
338,21.0,easy,explanation,Experiment 2 (test preview),8,visible,3.0,a,1.0,b,0.0,,,1.0,2,0.0,2991.895999976143
338,21.0,easy,explanation,Experiment 2 (test preview),9,hidden,3.0,a,,a,2.0,,,1.0,2,0.0,2717.897999988054
338,21.0,easy,explanation,Experiment 2 (test preview),10,hidden,2.0,b,,b,2.0,,,2.0,1,0.0,811.4929999940214
338,21.0,easy,explanation,Experiment 2 (test preview),11,hidden,2.0,a,,a,2.0,,,1.0,1,1.0,5173.67299998214
338,21.0,easy,explanation,Experiment 2 (test preview),12,visible,2.0,a,0.0,b,2.0,,,1.0,2,0.0,1734.065999988059
338,21.0,easy,explanation,Experiment 2 (test preview),13,visible,3.0,a,0.0,a,2.0,,,1.0,1,1.0,2326.569999982137
338,21.0,easy,explanation,Experiment 2 (test preview),14,hidden,3.0,b,,a,0.0,,,2.0,2,1.0,939.9789999821224
338,21.0,easy,explanation,Experiment 2 (test preview),15,hidden,3.0,a,,b,0.0,,,1.0,2,0.0,1113.2600000000093
338,21.0,easy,explanation,Experiment 2 (test preview),16,visible,0.0,a,2.0,b,2.0,,,2.0,2,1.0,7550.576000000001
338,21.0,easy,explanation,Experiment 2 (test preview),17,hidden,3.0,a,,b,2.0,,,1.0,1,1.0,363.1720000000205
338,21.0,easy,explanation,Experiment 2 (test preview),18,hidden,0.0,a,,a,0.0,,,2.0,1,0.0,1331.296999994025
338,21.0,easy,explanation,Experiment 2 (test preview),19,visible,3.0,a,1.0,a,0.0,,,1.0,2,0.0,1450.0169999821228
338,21.0,easy,explanation,Experiment 2 (test preview),20,hidden,0.0,a,,a,3.0,,,2.0,2,1.0,1522.1879999761586
339,21.0,easy,explanation,Experiment 2 (test preview),1,visible,2.0,a,0.0,b,2.0,,,1.0,1,1.0,1885.2399999996412
339,21.0,easy,explanation,Experiment 2 (test preview),2,visible,0.0,a,2.0,a,0.0,,,2.0,2,1.0,771.0439999998198
339,21.0,easy,explanation,Experiment 2 (test preview),3,hidden,0.0,a,,a,0.0,,,2.0,1,0.0,667.0559999998077
339,21.0,easy,explanation,Experiment 2 (test preview),4,hidden,3.0,a,,b,2.0,,,1.0,1,1.0,691.4899999994377
339,21.0,easy,explanation,Experiment 2 (test preview),5,hidden,0.0,b,,a,0.0,,,2.0,2,1.0,486.1590000000142
339,21.0,easy,explanation,Experiment 2 (test preview),6,visible,3.0,a,0.0,a,2.0,,,1.0,1,1.0,525.4189999996161
339,21.0,easy,explanation,Experiment 2 (test preview),7,hidden,3.0,b,,a,0.0,,,2.0,2,1.0,502.4469999999856
339,21.0,easy,explanation,Experiment 2 (test preview),8,hidden,3.0,a,,a,2.0,,,1.0,1,1.0,570.3409999994328
339,21.0,easy,explanation,Experiment 2 (test preview),9,visible,3.0,a,1.0,b,0.0,,,1.0,2,0.0,1020.0709999998217
339,21.0,easy,explanation,Experiment 2 (test preview),10,visible,2.0,a,0.0,a,2.0,,,1.0,1,1.0,670.4489999999932
339,21.0,easy,explanation,Experiment 2 (test preview),11,visible,0.0,a,2.0,b,2.0,,,2.0,1,0.0,550.682999999437
339,21.0,easy,explanation,Experiment 2 (test preview),12,hidden,2.0,a,,a,2.0,,,1.0,2,0.0,465.1399999994319
339,21.0,easy,explanation,Experiment 2 (test preview),13,visible,0.0,b,2.0,a,0.0,,,2.0,2,1.0,3998.565999999992
339,21.0,easy,explanation,Experiment 2 (test preview),14,visible,3.0,a,1.0,a,0.0,,,1.0,2,0.0,3062.6860000001907
339,21.0,easy,explanation,Experiment 2 (test preview),15,visible,0.0,b,2.0,a,3.0,,,2.0,2,1.0,967.3159999994386
339,21.0,easy,explanation,Experiment 2 (test preview),16,hidden,2.0,b,,b,2.0,,,2.0,1,0.0,881.0909999999858
339,21.0,easy,explanation,Experiment 2 (test preview),17,hidden,3.0,a,,b,0.0,,,1.0,1,1.0,689.7669999999925
339,21.0,easy,explanation,Experiment 2 (test preview),18,hidden,0.0,a,,a,3.0,,,2.0,2,1.0,381.2349999998114
339,21.0,easy,explanation,Experiment 2 (test preview),19,hidden,0.0,b,,b,2.0,,,2.0,1,0.0,609.7840000001888
339,21.0,easy,explanation,Experiment 2 (test preview),20,visible,0.0,b,2.0,b,2.0,,,2.0,2,1.0,498.3819999998086
340,21.0,easy,explanation,Experiment 2 (test preview),1,visible,3.0,a,0.0,a,2.0,,,1.0,2,0.0,1921.5979999880656
340,21.0,easy,explanation,Experiment 2 (test preview),2,visible,0.0,b,2.0,a,0.0,,,2.0,2,1.0,1572.4010000238486
340,21.0,easy,explanation,Experiment 2 (test preview),3,hidden,0.0,b,,a,0.0,,,2.0,1,0.0,5014.910000000004
340,21.0,easy,explanation,Experiment 2 (test preview),4,visible,3.0,a,1.0,b,0.0,,,1.0,1,1.0,5072.660999999993
340,21.0,easy,explanation,Experiment 2 (test preview),5,visible,0.0,a,2.0,a,0.0,,,2.0,2,1.0,2261.92699997616
340,21.0,easy,explanation,Experiment 2 (test preview),6,hidden,3.0,a,,a,2.0,,,1.0,2,0.0,2569.533000023832
340,21.0,easy,explanation,Experiment 2 (test preview),7,hidden,3.0,a,,b,0.0,,,1.0,1,1.0,2876.2140000238437
340,21.0,easy,explanation,Experiment 2 (test preview),8,hidden,3.0,b,,a,0.0,,,2.0,2,1.0,1421.530999976152
340,21.0,easy,explanation,Experiment 2 (test preview),9,visible,0.0,b,2.0,a,3.0,,,2.0,2,1.0,1058.7200000238372
340,21.0,easy,explanation,Experiment 2 (test preview),10,visible,0.0,b,2.0,b,2.0,,,2.0,2,1.0,332.915999988094
340,21.0,easy,explanation,Experiment 2 (test preview),11,visible,2.0,a,0.0,a,2.0,,,1.0,2,0.0,663.531999988074
340,21.0,easy,explanation,Experiment 2 (test preview),12,hidden,0.0,a,,a,0.0,,,2.0,1,0.0,336.69699997617863
340,21.0,easy,explanation,Experiment 2 (test preview),13,visible,2.0,a,0.0,b,2.0,,,1.0,2,0.0,317.00999998807674
340,21.0,easy,explanation,Experiment 2 (test preview),14,hidden,0.0,b,,b,2.0,,,2.0,2,1.0,354.316999976174
340,21.0,easy,explanation,Experiment 2 (test preview),15,hidden,2.0,b,,b,2.0,,,2.0,2,1.0,784.9089999880525
340,21.0,easy,explanation,Experiment 2 (test preview),16,hidden,3.0,a,,b,2.0,,,1.0,2,0.0,1256.4579999761772
340,21.0,easy,explanation,Experiment 2 (test preview),17,hidden,0.0,a,,a,3.0,,,2.0,2,1.0,384.7610000238637
340,21.0,easy,explanation,Experiment 2 (test preview),18,hidden,2.0,a,,a,2.0,,,1.0,2,0.0,2084.6450000000186
340,21.0,easy,explanation,Experiment 2 (test preview),19,visible,3.0,a,1.0,a,0.0,,,1.0,2,0.0,448.7889999880572
340,21.0,easy,explanation,Experiment 2 (test preview),20,visible,0.0,a,2.0,b,2.0,,,2.0,2,1.0,371.6179999761516
342,21.0,easy,explanation,Experiment 2 (test preview),1,visible,2.0,a,0.0,a,2.0,,,1.0,1,1.0,3561.7990000003483
342,21.0,easy,explanation,Experiment 2 (test preview),2,visible,0.0,b,2.0,b,2.0,,,2.0,2,1.0,7668.512000000395
342,21.0,easy,explanation,Experiment 2 (test preview),3,hidden,2.0,a,,a,2.0,,,1.0,1,1.0,1756.6269999988726
342,21.0,easy,explanation,Experiment 2 (test preview),4,visible,2.0,a,0.0,b,2.0,,,1.0,2,0.0,6418.971999999252
342,21.0,easy,explanation,Experiment 2 (test preview),5,hidden,0.0,b,,b,2.0,,,2.0,1,0.0,573.2860000000219
342,21.0,easy,explanation,Experiment 2 (test preview),6,hidden,2.0,b,,b,2.0,,,2.0,1,0.0,628.5619999988703
342,21.0,easy,explanation,Experiment 2 (test preview),7,hidden,3.0,a,,b,2.0,,,1.0,2,0.0,596.2099999996135
342,21.0,easy,explanation,Experiment 2 (test preview),8,hidden,0.0,b,,a,0.0,,,2.0,1,0.0,5448.714999999269
342,21.0,easy,explanation,Experiment 2 (test preview),9,visible,0.0,a,2.0,a,0.0,,,2.0,1,0.0,938.7380000003614
342,21.0,easy,explanation,Experiment 2 (test preview),10,visible,3.0,a,1.0,a,0.0,,,1.0,2,0.0,529.9580000003916
342,21.0,easy,explanation,Experiment 2 (test preview),11,hidden,0.0,a,,a,3.0,,,2.0,2,1.0,2406.4079999996466
342,21.0,easy,explanation,Experiment 2 (test preview),12,hidden,3.0,b,,a,0.0,,,2.0,1,0.0,555.4229999996023
342,21.0,easy,explanation,Experiment 2 (test preview),13,visible,0.0,b,2.0,a,3.0,,,2.0,2,1.0,6283.872000000381
342,21.0,easy,explanation,Experiment 2 (test preview),14,hidden,3.0,a,,a,2.0,,,1.0,1,1.0,453.0989999996382
342,21.0,easy,explanation,Experiment 2 (test preview),15,hidden,0.0,a,,a,0.0,,,2.0,2,1.0,473.7069999996456
342,21.0,easy,explanation,Experiment 2 (test preview),16,visible,0.0,b,2.0,a,0.0,,,2.0,2,1.0,448.97299999924144
342,21.0,easy,explanation,Experiment 2 (test preview),17,visible,3.0,a,0.0,a,2.0,,,1.0,1,1.0,401.3519999992568
342,21.0,easy,explanation,Experiment 2 (test preview),18,visible,3.0,a,1.0,b,0.0,,,1.0,2,0.0,1366.5849999988568
342,21.0,easy,explanation,Experiment 2 (test preview),19,hidden,3.0,a,,b,0.0,,,1.0,1,1.0,1867.3020000000247
342,21.0,easy,explanation,Experiment 2 (test preview),20,visible,0.0,a,2.0,b,2.0,,,2.0,2,1.0,2530.464999999269
341,21.0,easy,explanation,Experiment 2 (test preview),1,hidden,3.0,a,,b,0.0,,,1.0,2,0.0,2556.541999904613
341,21.0,easy,explanation,Experiment 2 (test preview),2,hidden,0.0,b,,b,2.0,,,2.0,2,1.0,2244.021999904653
341,21.0,easy,explanation,Experiment 2 (test preview),3,visible,2.0,a,0.0,a,2.0,,,1.0,1,1.0,3343.408999999985
341,21.0,easy,explanation,Experiment 2 (test preview),4,hidden,3.0,a,,b,2.0,,,1.0,2,0.0,1206.0289999046363
341,21.0,easy,explanation,Experiment 2 (test preview),5,hidden,0.0,a,,a,0.0,,,2.0,1,0.0,1116.657000095351
341,21.0,easy,explanation,Experiment 2 (test preview),6,visible,3.0,a,1.0,b,0.0,,,1.0,2,0.0,915.8169999046368
341,21.0,easy,explanation,Experiment 2 (test preview),7,visible,3.0,a,1.0,a,0.0,,,1.0,1,1.0,1182.0050000953488
341,21.0,easy,explanation,Experiment 2 (test preview),8,hidden,3.0,b,,a,0.0,,,2.0,2,1.0,1838.344999999972
341,21.0,easy,explanation,Experiment 2 (test preview),9,hidden,0.0,a,,a,3.0,,,2.0,1,0.0,786.3389999999781
341,21.0,easy,explanation,Experiment 2 (test preview),10,visible,0.0,a,2.0,a,0.0,,,2.0,1,0.0,747.6990001907106
341,21.0,easy,explanation,Experiment 2 (test preview),11,visible,0.0,b,2.0,a,0.0,,,2.0,2,1.0,1552.1919999046368
341,21.0,easy,explanation,Experiment 2 (test preview),12,hidden,3.0,a,,a,2.0,,,1.0,1,1.0,799.4719999046065
341,21.0,easy,explanation,Experiment 2 (test preview),13,visible,2.0,a,0.0,b,2.0,,,1.0,2,0.0,777.2519999999786
341,21.0,easy,explanation,Experiment 2 (test preview),14,hidden,0.0,b,,a,0.0,,,2.0,2,1.0,668.8560001907172
341,21.0,easy,explanation,Experiment 2 (test preview),15,hidden,2.0,b,,b,2.0,,,2.0,2,1.0,2877.8759999999893
341,21.0,easy,explanation,Experiment 2 (test preview),16,visible,0.0,b,2.0,b,2.0,,,2.0,2,1.0,3871.900000095368
341,21.0,easy,explanation,Experiment 2 (test preview),17,visible,0.0,b,2.0,a,3.0,,,2.0,2,1.0,605.3599999046419
341,21.0,easy,explanation,Experiment 2 (test preview),18,visible,0.0,a,2.0,b,2.0,,,2.0,2,1.0,781.0749998092651
341,21.0,easy,explanation,Experiment 2 (test preview),19,visible,3.0,a,0.0,a,2.0,,,1.0,1,1.0,1100.2350001907323
341,21.0,easy,explanation,Experiment 2 (test preview),20,hidden,2.0,a,,a,2.0,,,1.0,1,1.0,545.5259998092661
343,21.0,easy,explanation,Experiment 2 (test preview),1,hidden,3.0,a,,a,2.0,,,1.0,2,0.0,2878.0099999880767
343,21.0,easy,explanation,Experiment 2 (test preview),2,visible,2.0,a,0.0,a,2.0,,,1.0,2,0.0,4379.950999988068
343,21.0,easy,explanation,Experiment 2 (test preview),3,visible,3.0,a,1.0,b,0.0,,,1.0,1,1.0,594.6870000000054
343,21.0,easy,explanation,Experiment 2 (test preview),4,hidden,3.0,a,,b,2.0,,,1.0,1,1.0,369.3960000000079
343,21.0,easy,explanation,Experiment 2 (test preview),5,hidden,2.0,a,,a,2.0,,,1.0,2,0.0,611.635999988066
343,21.0,easy,explanation,Experiment 2 (test preview),6,hidden,0.0,a,,a,3.0,,,2.0,2,1.0,525.1990000000224
343,21.0,easy,explanation,Experiment 2 (test preview),7,visible,3.0,a,1.0,a,0.0,,,1.0,2,0.0,390.3579999880749
343,21.0,easy,explanation,Experiment 2 (test preview),8,hidden,0.0,a,,a,0.0,,,2.0,2,1.0,1941.7750000238304
343,21.0,easy,explanation,Experiment 2 (test preview),9,hidden,0.0,b,,b,2.0,,,2.0,1,0.0,3622.3120000238414
343,21.0,easy,explanation,Experiment 2 (test preview),10,visible,0.0,a,2.0,b,2.0,,,2.0,1,0.0,498.5570000238368
343,21.0,easy,explanation,Experiment 2 (test preview),11,visible,2.0,a,0.0,b,2.0,,,1.0,1,1.0,615.2210000000196
343,21.0,easy,explanation,Experiment 2 (test preview),12,visible,3.0,a,0.0,a,2.0,,,1.0,2,0.0,446.3600000119186
343,21.0,easy,explanation,Experiment 2 (test preview),13,visible,0.0,b,2.0,a,0.0,,,2.0,2,1.0,396.94800003577257
343,21.0,easy,explanation,Experiment 2 (test preview),14,hidden,0.0,b,,a,0.0,,,2.0,2,1.0,433.2050000238232
343,21.0,easy,explanation,Experiment 2 (test preview),15,visible,0.0,b,2.0,a,3.0,,,2.0,2,1.0,685.3250000238186
343,21.0,easy,explanation,Experiment 2 (test preview),16,hidden,2.0,b,,b,2.0,,,2.0,2,1.0,503.3499999999767
343,21.0,easy,explanation,Experiment 2 (test preview),17,visible,0.0,a,2.0,a,0.0,,,2.0,2,1.0,502.0400000238442
343,21.0,easy,explanation,Experiment 2 (test preview),18,visible,0.0,b,2.0,b,2.0,,,2.0,2,1.0,2792.5430000119377
343,21.0,easy,explanation,Experiment 2 (test preview),19,hidden,3.0,a,,b,0.0,,,1.0,1,1.0,408.308000023826
343,21.0,easy,explanation,Experiment 2 (test preview),20,hidden,3.0,b,,a,0.0,,,2.0,2,1.0,383.68599999998696
344,21.0,easy,explanation,Experiment 2 (test preview),1,visible,0.0,a,2.0,a,0.0,,,2.0,2,1.0,7113.0
344,21.0,easy,explanation,Experiment 2 (test preview),2,visible,3.0,a,1.0,a,0.0,,,1.0,2,0.0,10222.0
344,21.0,easy,explanation,Experiment 2 (test preview),3,hidden,2.0,b,,b,2.0,,,2.0,1,0.0,8889.0
344,21.0,easy,explanation,Experiment 2 (test preview),4,visible,0.0,b,2.0,a,0.0,,,2.0,2,1.0,406.0
344,21.0,easy,explanation,Experiment 2 (test preview),5,visible,3.0,a,1.0,b,0.0,,,1.0,1,1.0,326.0
344,21.0,easy,explanation,Experiment 2 (test preview),6,hidden,0.0,a,,a,3.0,,,2.0,2,1.0,990.0
344,21.0,easy,explanation,Experiment 2 (test preview),7,visible,2.0,a,0.0,a,2.0,,,1.0,2,0.0,316.0
344,21.0,easy,explanation,Experiment 2 (test preview),8,hidden,3.0,a,,a,2.0,,,1.0,2,0.0,410.0
344,21.0,easy,explanation,Experiment 2 (test preview),9,visible,0.0,b,2.0,b,2.0,,,2.0,1,0.0,319.0
344,21.0,easy,explanation,Experiment 2 (test preview),10,visible,0.0,b,2.0,a,3.0,,,2.0,2,1.0,455.0
344,21.0,easy,explanation,Experiment 2 (test preview),11,hidden,3.0,a,,b,2.0,,,1.0,1,1.0,308.0
344,21.0,easy,explanation,Experiment 2 (test preview),12,hidden,2.0,a,,a,2.0,,,1.0,2,0.0,210.0
344,21.0,easy,explanation,Experiment 2 (test preview),13,hidden,0.0,b,,b,2.0,,,2.0,1,0.0,1430.0
344,21.0,easy,explanation,Experiment 2 (test preview),14,hidden,0.0,b,,a,0.0,,,2.0,2,1.0,418.0
344,21.0,easy,explanation,Experiment 2 (test preview),15,visible,0.0,a,2.0,b,2.0,,,2.0,1,0.0,1411.0
344,21.0,easy,explanation,Experiment 2 (test preview),16,visible,3.0,a,0.0,a,2.0,,,1.0,2,0.0,1149.0
344,21.0,easy,explanation,Experiment 2 (test preview),17,hidden,0.0,a,,a,0.0,,,2.0,2,1.0,290.0
344,21.0,easy,explanation,Experiment 2 (test preview),18,hidden,3.0,b,,a,0.0,,,2.0,2,1.0,298.0
344,21.0,easy,explanation,Experiment 2 (test preview),19,visible,2.0,a,0.0,b,2.0,,,1.0,1,1.0,222.0
344,21.0,easy,explanation,Experiment 2 (test preview),20,hidden,3.0,a,,b,0.0,,,1.0,1,1.0,518.0
345,21.0,easy,explanation,Experiment 2 (test preview),1,hidden,0.0,b,,b,2.0,,,2.0,2,1.0,5096.773999809288
345,21.0,easy,explanation,Experiment 2 (test preview),2,visible,2.0,a,0.0,a,2.0,,,1.0,1,1.0,3617.962
345,21.0,easy,explanation,Experiment 2 (test preview),3,visible,3.0,a,1.0,a,0.0,,,1.0,2,0.0,1247.691999999981
345,21.0,easy,explanation,Experiment 2 (test preview),4,hidden,3.0,a,,b,2.0,,,1.0,2,0.0,1205.033999999985
345,21.0,easy,explanation,Experiment 2 (test preview),5,visible,0.0,a,2.0,a,0.0,,,2.0,2,1.0,2393.9160000000265
345,21.0,easy,explanation,Experiment 2 (test preview),6,visible,3.0,a,0.0,a,2.0,,,1.0,1,1.0,2733.716000000015
345,21.0,easy,explanation,Experiment 2 (test preview),7,hidden,3.0,a,,b,0.0,,,1.0,1,1.0,1020.3050000953954
345,21.0,easy,explanation,Experiment 2 (test preview),8,visible,0.0,b,2.0,a,0.0,,,2.0,2,1.0,1039.8439998092365
345,21.0,easy,explanation,Experiment 2 (test preview),9,visible,3.0,a,1.0,b,0.0,,,1.0,1,1.0,10000.255000000005
345,21.0,easy,explanation,Experiment 2 (test preview),10,visible,0.0,b,2.0,b,2.0,,,2.0,2,1.0,839.96800019074
345,21.0,easy,explanation,Experiment 2 (test preview),11,hidden,0.0,a,,a,0.0,,,2.0,2,1.0,1144.624999904656
345,21.0,easy,explanation,Experiment 2 (test preview),12,hidden,3.0,a,,a,2.0,,,1.0,1,1.0,1815.9259999046333
345,21.0,easy,explanation,Experiment 2 (test preview),13,visible,2.0,a,0.0,b,2.0,,,1.0,2,0.0,1097.3530001907493
345,21.0,easy,explanation,Experiment 2 (test preview),14,visible,0.0,a,2.0,b,2.0,,,2.0,2,1.0,757.640000000014
345,21.0,easy,explanation,Experiment 2 (test preview),15,hidden,2.0,b,,b,2.0,,,2.0,2,1.0,1057.489000190748
345,21.0,easy,explanation,Experiment 2 (test preview),16,hidden,0.0,a,,a,3.0,,,2.0,2,1.0,1965.316000095394
345,21.0,easy,explanation,Experiment 2 (test preview),17,visible,0.0,b,2.0,a,3.0,,,2.0,2,1.0,1116.491999809281
345,21.0,easy,explanation,Experiment 2 (test preview),18,hidden,0.0,b,,a,0.0,,,2.0,1,0.0,16719.40200019075
345,21.0,easy,explanation,Experiment 2 (test preview),19,hidden,2.0,a,,a,2.0,,,1.0,1,1.0,504.9270000000252
345,21.0,easy,explanation,Experiment 2 (test preview),20,hidden,3.0,b,,a,0.0,,,2.0,2,1.0,953.4459998092498
346,21.0,easy,explanation,Experiment 2 (test preview),1,visible,0.0,b,2.0,b,2.0,,,2.0,1,0.0,3272.0250000000237
346,21.0,easy,explanation,Experiment 2 (test preview),2,visible,3.0,a,1.0,b,0.0,,,1.0,2,0.0,3856.6649999881047
346,21.0,easy,explanation,Experiment 2 (test preview),3,hidden,2.0,b,,b,2.0,,,2.0,1,0.0,4397.334999976156
346,21.0,easy,explanation,Experiment 2 (test preview),4,hidden,3.0,a,,b,0.0,,,1.0,2,0.0,1856.686999994039
346,21.0,easy,explanation,Experiment 2 (test preview),5,visible,0.0,b,2.0,a,0.0,,,2.0,2,1.0,5495.831999999995
346,21.0,easy,explanation,Experiment 2 (test preview),6,hidden,0.0,b,,b,2.0,,,2.0,2,1.0,4863.306999976165
346,21.0,easy,explanation,Experiment 2 (test preview),7,visible,0.0,a,2.0,b,2.0,,,2.0,1,0.0,4295.911000000022
346,21.0,easy,explanation,Experiment 2 (test preview),8,hidden,3.0,b,,a,0.0,,,2.0,2,1.0,3000.146999976132
346,21.0,easy,explanation,Experiment 2 (test preview),9,hidden,0.0,a,,a,3.0,,,2.0,2,1.0,4111.223999999987
346,21.0,easy,explanation,Experiment 2 (test preview),10,visible,0.0,b,2.0,a,3.0,,,2.0,2,1.0,4620.831999982125
346,21.0,easy,explanation,Experiment 2 (test preview),11,visible,2.0,a,0.0,a,2.0,,,1.0,2,0.0,3106.0999999881024
346,21.0,easy,explanation,Experiment 2 (test preview),12,hidden,0.0,a,,a,0.0,,,2.0,1,0.0,2328.002999982098
346,21.0,easy,explanation,Experiment 2 (test preview),13,visible,2.0,a,0.0,b,2.0,,,1.0,2,0.0,1977.8389999761712
346,21.0,easy,explanation,Experiment 2 (test preview),14,hidden,0.0,b,,a,0.0,,,2.0,1,0.0,1390.6619999821414
346,21.0,easy,explanation,Experiment 2 (test preview),15,visible,0.0,a,2.0,a,0.0,,,2.0,2,1.0,1754.9599999761558
346,21.0,easy,explanation,Experiment 2 (test preview),16,hidden,3.0,a,,b,2.0,,,1.0,2,0.0,4459.736999976158
346,21.0,easy,explanation,Experiment 2 (test preview),17,visible,3.0,a,1.0,a,0.0,,,1.0,1,1.0,1411.158999999985
346,21.0,easy,explanation,Experiment 2 (test preview),18,hidden,3.0,a,,a,2.0,,,1.0,1,1.0,2797.8579999821377
346,21.0,easy,explanation,Experiment 2 (test preview),19,hidden,2.0,a,,a,2.0,,,1.0,2,0.0,2012.9799999999811
346,21.0,easy,explanation,Experiment 2 (test preview),20,visible,3.0,a,0.0,a,2.0,,,1.0,2,0.0,2017.2689999880968
348,21.0,easy,explanation,Experiment 2 (test preview),1,hidden,0.0,a,,a,3.0,,,2.0,1,0.0,15579.16799997614
348,21.0,easy,explanation,Experiment 2 (test preview),2,hidden,3.0,a,,b,2.0,,,1.0,2,0.0,7947.606000011903
348,21.0,easy,explanation,Experiment 2 (test preview),3,hidden,3.0,b,,a,0.0,,,2.0,2,1.0,10655.180999999982
348,21.0,easy,explanation,Experiment 2 (test preview),4,hidden,0.0,b,,a,0.0,,,2.0,2,1.0,8131.52299997618
348,21.0,easy,explanation,Experiment 2 (test preview),5,visible,0.0,b,2.0,a,0.0,,,2.0,2,1.0,7105.114999999991
348,21.0,easy,explanation,Experiment 2 (test preview),6,hidden,2.0,b,,b,2.0,,,2.0,2,1.0,7596.405000011902
348,21.0,easy,explanation,Experiment 2 (test preview),7,hidden,0.0,b,,b,2.0,,,2.0,1,0.0,5666.532999999996
348,21.0,easy,explanation,Experiment 2 (test preview),8,hidden,0.0,a,,a,0.0,,,2.0,1,0.0,3392.3009999761707
348,21.0,easy,explanation,Experiment 2 (test preview),9,visible,0.0,b,2.0,b,2.0,,,2.0,2,1.0,5915.1189999880735
348,21.0,easy,explanation,Experiment 2 (test preview),10,visible,2.0,a,0.0,b,2.0,,,1.0,2,0.0,10096.030999976152
348,21.0,easy,explanation,Experiment 2 (test preview),11,visible,0.0,a,2.0,b,2.0,,,2.0,2,1.0,3877.511000023864
348,21.0,easy,explanation,Experiment 2 (test preview),12,visible,3.0,a,1.0,b,0.0,,,1.0,1,1.0,13479.445000000009
348,21.0,easy,explanation,Experiment 2 (test preview),13,hidden,3.0,a,,a,2.0,,,1.0,1,1.0,3844.3810000119274
348,21.0,easy,explanation,Experiment 2 (test preview),14,visible,0.0,b,2.0,a,3.0,,,2.0,1,0.0,6561.175000023795
348,21.0,easy,explanation,Experiment 2 (test preview),15,visible,3.0,a,0.0,a,2.0,,,1.0,2,0.0,2937.262000023853
348,21.0,easy,explanation,Experiment 2 (test preview),16,visible,2.0,a,0.0,a,2.0,,,1.0,2,0.0,8026.910000000033
348,21.0,easy,explanation,Experiment 2 (test preview),17,hidden,3.0,a,,b,0.0,,,1.0,1,1.0,6988.713000011863
348,21.0,easy,explanation,Experiment 2 (test preview),18,visible,0.0,a,2.0,a,0.0,,,2.0,2,1.0,6974.677000000025
348,21.0,easy,explanation,Experiment 2 (test preview),19,visible,3.0,a,1.0,a,0.0,,,1.0,1,1.0,8739.012000023853
348,21.0,easy,explanation,Experiment 2 (test preview),20,hidden,2.0,a,,a,2.0,,,1.0,2,0.0,2809.234000023804
347,21.0,easy,explanation,Experiment 2 (test preview),1,hidden,3.0,b,,a,0.0,,,2.0,1,0.0,6546.309999991034
347,21.0,easy,explanation,Experiment 2 (test preview),2,hidden,3.0,a,,b,2.0,,,1.0,1,1.0,5386.767999991076
347,21.0,easy,explanation,Experiment 2 (test preview),3,hidden,2.0,a,,a,2.0,,,1.0,1,1.0,2887.123999988078
347,21.0,easy,explanation,Experiment 2 (test preview),4,visible,2.0,a,0.0,b,2.0,,,1.0,1,1.0,3387.338999997009
347,21.0,easy,explanation,Experiment 2 (test preview),5,visible,0.0,a,2.0,a,0.0,,,2.0,1,0.0,6406.319000000018
347,21.0,easy,explanation,Experiment 2 (test preview),6,hidden,0.0,b,,a,0.0,,,2.0,1,0.0,3348.609999997017
347,21.0,easy,explanation,Experiment 2 (test preview),7,visible,3.0,a,1.0,b,0.0,,,1.0,1,1.0,3113.905999994022
347,21.0,easy,explanation,Experiment 2 (test preview),8,visible,3.0,a,0.0,a,2.0,,,1.0,1,1.0,2752.3809999940568
347,21.0,easy,explanation,Experiment 2 (test preview),9,hidden,0.0,b,,b,2.0,,,2.0,1,0.0,2929.0679999970016
347,21.0,easy,explanation,Experiment 2 (test preview),10,hidden,0.0,a,,a,0.0,,,2.0,2,1.0,2845.088999988104
347,21.0,easy,explanation,Experiment 2 (test preview),11,visible,2.0,a,0.0,a,2.0,,,1.0,1,1.0,1514.2449999880628
347,21.0,easy,explanation,Experiment 2 (test preview),12,visible,3.0,a,1.0,a,0.0,,,1.0,1,1.0,3914.454999994021
347,21.0,easy,explanation,Experiment 2 (test preview),13,visible,0.0,a,2.0,b,2.0,,,2.0,1,0.0,1906.3499999881024
347,21.0,easy,explanation,Experiment 2 (test preview),14,hidden,2.0,b,,b,2.0,,,2.0,1,0.0,3990.3629999940167
347,21.0,easy,explanation,Experiment 2 (test preview),15,hidden,3.0,a,,b,0.0,,,1.0,1,1.0,3121.670999991067
347,21.0,easy,explanation,Experiment 2 (test preview),16,visible,0.0,b,2.0,a,0.0,,,2.0,2,1.0,5395.01299999404
347,21.0,easy,explanation,Experiment 2 (test preview),17,hidden,0.0,a,,a,3.0,,,2.0,1,0.0,616.7899999910733
347,21.0,easy,explanation,Experiment 2 (test preview),18,visible,0.0,b,2.0,a,3.0,,,2.0,1,0.0,1146.5729999881005
347,21.0,easy,explanation,Experiment 2 (test preview),19,visible,0.0,b,2.0,b,2.0,,,2.0,1,0.0,1675.1709999940358
347,21.0,easy,explanation,Experiment 2 (test preview),20,hidden,3.0,a,,a,2.0,,,1.0,1,1.0,1675.5059999910882
349,21.0,easy,explanation,Experiment 2 (test preview),1,visible,0.0,a,2.0,a,0.0,,,2.0,2,1.0,9379.689000002923
349,21.0,easy,explanation,Experiment 2 (test preview),2,hidden,0.0,b,,a,0.0,,,2.0,2,1.0,6849.973000005935
349,21.0,easy,explanation,Experiment 2 (test preview),3,visible,3.0,a,0.0,a,2.0,,,1.0,1,1.0,12852.786000011954
349,21.0,easy,explanation,Experiment 2 (test preview),4,hidden,3.0,b,,a,0.0,,,2.0,2,1.0,9784.348000005935
349,21.0,easy,explanation,Experiment 2 (test preview),5,hidden,3.0,a,,b,2.0,,,1.0,1,1.0,6471.748000005959
349,21.0,easy,explanation,Experiment 2 (test preview),6,hidden,0.0,a,,a,3.0,,,2.0,2,1.0,7106.509000006015
349,21.0,easy,explanation,Experiment 2 (test preview),7,hidden,0.0,a,,a,0.0,,,2.0,2,1.0,14789.12700001197
349,21.0,easy,explanation,Experiment 2 (test preview),8,visible,2.0,a,0.0,b,2.0,,,1.0,1,1.0,22152.211000003037
349,21.0,easy,explanation,Experiment 2 (test preview),9,hidden,3.0,a,,b,0.0,,,1.0,2,0.0,18792.030000005965
349,21.0,easy,explanation,Experiment 2 (test preview),10,visible,0.0,a,2.0,b,2.0,,,2.0,2,1.0,9206.943000008934
349,21.0,easy,explanation,Experiment 2 (test preview),11,visible,0.0,b,2.0,b,2.0,,,2.0,1,0.0,5548.77800000296
349,21.0,easy,explanation,Experiment 2 (test preview),12,hidden,2.0,b,,b,2.0,,,2.0,2,1.0,6238.644000008935
349,21.0,easy,explanation,Experiment 2 (test preview),13,hidden,0.0,b,,b,2.0,,,2.0,2,1.0,2836.0849999999627
349,21.0,easy,explanation,Experiment 2 (test preview),14,visible,0.0,b,2.0,a,3.0,,,2.0,2,1.0,2731.908000005991
349,21.0,easy,explanation,Experiment 2 (test preview),15,hidden,2.0,a,,a,2.0,,,1.0,1,1.0,26329.36800000898
349,21.0,easy,explanation,Experiment 2 (test preview),16,visible,3.0,a,1.0,b,0.0,,,1.0,1,1.0,7859.732000008924
349,21.0,easy,explanation,Experiment 2 (test preview),17,hidden,3.0,a,,a,2.0,,,1.0,2,0.0,9815.659999999916
349,21.0,easy,explanation,Experiment 2 (test preview),18,visible,3.0,a,1.0,a,0.0,,,1.0,2,0.0,14895.297000003047
349,21.0,easy,explanation,Experiment 2 (test preview),19,visible,0.0,b,2.0,a,0.0,,,2.0,2,1.0,7354.460999999894
349,21.0,easy,explanation,Experiment 2 (test preview),20,visible,2.0,a,0.0,a,2.0,,,1.0,1,1.0,10324.555000005988
351,21.0,easy,explanation,Experiment 2 (test preview),1,hidden,0.0,b,,a,0.0,,,2.0,2,1.0,2891.0
351,21.0,easy,explanation,Experiment 2 (test preview),2,visible,3.0,a,0.0,a,2.0,,,1.0,1,1.0,2227.0
351,21.0,easy,explanation,Experiment 2 (test preview),3,hidden,3.0,a,,b,2.0,,,1.0,1,1.0,1840.0
351,21.0,easy,explanation,Experiment 2 (test preview),4,visible,2.0,a,0.0,b,2.0,,,1.0,1,1.0,1938.0
351,21.0,easy,explanation,Experiment 2 (test preview),5,hidden,3.0,b,,a,0.0,,,2.0,2,1.0,1369.0
351,21.0,easy,explanation,Experiment 2 (test preview),6,hidden,0.0,b,,b,2.0,,,2.0,1,0.0,1266.0
351,21.0,easy,explanation,Experiment 2 (test preview),7,visible,3.0,a,1.0,a,0.0,,,1.0,1,1.0,3320.0
351,21.0,easy,explanation,Experiment 2 (test preview),8,visible,0.0,b,2.0,b,2.0,,,2.0,2,1.0,4826.0
351,21.0,easy,explanation,Experiment 2 (test preview),9,hidden,3.0,a,,b,0.0,,,1.0,1,1.0,5944.000000000058
351,21.0,easy,explanation,Experiment 2 (test preview),10,hidden,2.0,a,,a,2.0,,,1.0,1,1.0,1669.0
351,21.0,easy,explanation,Experiment 2 (test preview),11,visible,3.0,a,1.0,b,0.0,,,1.0,1,1.0,2389.0
351,21.0,easy,explanation,Experiment 2 (test preview),12,hidden,2.0,b,,b,2.0,,,2.0,2,1.0,4141.0
351,21.0,easy,explanation,Experiment 2 (test preview),13,visible,0.0,b,2.0,a,3.0,,,2.0,2,1.0,3013.000000000058
351,21.0,easy,explanation,Experiment 2 (test preview),14,hidden,0.0,a,,a,3.0,,,2.0,2,1.0,1217.0
351,21.0,easy,explanation,Experiment 2 (test preview),15,hidden,0.0,a,,a,0.0,,,2.0,2,1.0,6022.0
351,21.0,easy,explanation,Experiment 2 (test preview),16,hidden,3.0,a,,a,2.0,,,1.0,1,1.0,3003.0
351,21.0,easy,explanation,Experiment 2 (test preview),17,visible,0.0,a,2.0,b,2.0,,,2.0,1,0.0,9459.0
351,21.0,easy,explanation,Experiment 2 (test preview),18,visible,0.0,a,2.0,a,0.0,,,2.0,2,1.0,5254.000000000058
351,21.0,easy,explanation,Experiment 2 (test preview),19,visible,0.0,b,2.0,a,0.0,,,2.0,2,1.0,590.0
351,21.0,easy,explanation,Experiment 2 (test preview),20,visible,2.0,a,0.0,a,2.0,,,1.0,1,1.0,2778.0
354,21.0,easy,explanation,Experiment 2 (test preview),1,visible,0.0,a,2.0,b,2.0,,,2.0,2,1.0,2501.002000023844
354,21.0,easy,explanation,Experiment 2 (test preview),2,hidden,0.0,a,,a,0.0,,,2.0,1,0.0,1625.2440000715433
354,21.0,easy,explanation,Experiment 2 (test preview),3,visible,0.0,b,2.0,a,0.0,,,2.0,2,1.0,2478.45300004771
354,21.0,easy,explanation,Experiment 2 (test preview),4,hidden,3.0,a,,b,2.0,,,1.0,2,0.0,1373.1329999999723
354,21.0,easy,explanation,Experiment 2 (test preview),5,hidden,3.0,a,,b,0.0,,,1.0,2,0.0,9211.325000071549
354,21.0,easy,explanation,Experiment 2 (test preview),6,visible,3.0,a,1.0,b,0.0,,,1.0,1,1.0,5035.274000071513
354,21.0,easy,explanation,Experiment 2 (test preview),7,visible,0.0,b,2.0,b,2.0,,,2.0,2,1.0,1271.017999976175
354,21.0,easy,explanation,Experiment 2 (test preview),8,visible,3.0,a,1.0,a,0.0,,,1.0,1,1.0,9058.62200002384
354,21.0,easy,explanation,Experiment 2 (test preview),9,visible,2.0,a,0.0,a,2.0,,,1.0,1,1.0,2758.110999999976
354,21.0,easy,explanation,Experiment 2 (test preview),10,visible,0.0,a,2.0,a,0.0,,,2.0,1,0.0,1135.2520000238435
354,21.0,easy,explanation,Experiment 2 (test preview),11,visible,0.0,b,2.0,a,3.0,,,2.0,2,1.0,1036.4320000238367
354,21.0,easy,explanation,Experiment 2 (test preview),12,visible,3.0,a,0.0,a,2.0,,,1.0,2,0.0,1203.374000071548
354,21.0,easy,explanation,Experiment 2 (test preview),13,hidden,3.0,b,,a,0.0,,,2.0,2,1.0,2221.0329999761307
354,21.0,easy,explanation,Experiment 2 (test preview),14,hidden,2.0,b,,b,2.0,,,2.0,2,1.0,1620.8180000715074
354,21.0,easy,explanation,Experiment 2 (test preview),15,hidden,0.0,b,,b,2.0,,,2.0,1,0.0,6175.019000023836
354,21.0,easy,explanation,Experiment 2 (test preview),16,hidden,2.0,a,,a,2.0,,,1.0,1,1.0,1878.0250000715023
354,21.0,easy,explanation,Experiment 2 (test preview),17,hidden,0.0,a,,a,3.0,,,2.0,2,1.0,1620.8770000715158
354,21.0,easy,explanation,Experiment 2 (test preview),18,visible,2.0,a,0.0,b,2.0,,,1.0,2,0.0,781.274000071513
354,21.0,easy,explanation,Experiment 2 (test preview),19,hidden,3.0,a,,a,2.0,,,1.0,2,0.0,1951.782999999996
354,21.0,easy,explanation,Experiment 2 (test preview),20,hidden,0.0,b,,a,0.0,,,2.0,2,1.0,2325.307000071509
355,21.0,easy,explanation,Experiment 2 (test preview),1,hidden,0.0,b,,b,2.0,,,2.0,2,1.0,1671.8530000044266
355,21.0,easy,explanation,Experiment 2 (test preview),2,hidden,0.0,b,,a,0.0,,,2.0,2,1.0,474.75400000449736
355,21.0,easy,explanation,Experiment 2 (test preview),3,hidden,0.0,a,,a,0.0,,,2.0,2,1.0,2213.2009999984875
355,21.0,easy,explanation,Experiment 2 (test preview),4,visible,3.0,a,1.0,a,0.0,,,1.0,2,0.0,289.9270000029356
355,21.0,easy,explanation,Experiment 2 (test preview),5,hidden,2.0,b,,b,2.0,,,2.0,2,1.0,708.8959999999497
355,21.0,easy,explanation,Experiment 2 (test preview),6,visible,3.0,a,1.0,b,0.0,,,1.0,2,0.0,295.3239999985089
355,21.0,easy,explanation,Experiment 2 (test preview),7,visible,0.0,b,2.0,a,3.0,,,2.0,2,1.0,570.7290000044741
355,21.0,easy,explanation,Experiment 2 (test preview),8,visible,0.0,a,2.0,a,0.0,,,2.0,2,1.0,276.0530000014696
355,21.0,easy,explanation,Experiment 2 (test preview),9,hidden,0.0,a,,a,3.0,,,2.0,2,1.0,277.00699999846984
355,21.0,easy,explanation,Experiment 2 (test preview),10,visible,3.0,a,0.0,a,2.0,,,1.0,2,0.0,525.9980000029318
355,21.0,easy,explanation,Experiment 2 (test preview),11,visible,2.0,a,0.0,a,2.0,,,1.0,2,0.0,2013.9719999999504
355,21.0,easy,explanation,Experiment 2 (test preview),12,visible,0.0,b,2.0,b,2.0,,,2.0,2,1.0,354.7889999984764
355,21.0,easy,explanation,Experiment 2 (test preview),13,visible,0.0,b,2.0,a,0.0,,,2.0,2,1.0,2882.7800000029383
355,21.0,easy,explanation,Experiment 2 (test preview),14,hidden,3.0,a,,b,0.0,,,1.0,2,0.0,404.8649999999907
355,21.0,easy,explanation,Experiment 2 (test preview),15,visible,0.0,a,2.0,b,2.0,,,2.0,2,1.0,332.1600000044564
355,21.0,easy,explanation,Experiment 2 (test preview),16,hidden,3.0,a,,a,2.0,,,1.0,2,0.0,564.1360000014538
355,21.0,easy,explanation,Experiment 2 (test preview),17,hidden,3.0,b,,a,0.0,,,2.0,2,1.0,784.7919999985024
355,21.0,easy,explanation,Experiment 2 (test preview),18,hidden,3.0,a,,b,2.0,,,1.0,2,0.0,339.7820000030333
355,21.0,easy,explanation,Experiment 2 (test preview),19,visible,2.0,a,0.0,b,2.0,,,1.0,2,0.0,940.862000001478
355,21.0,easy,explanation,Experiment 2 (test preview),20,hidden,2.0,a,,a,2.0,,,1.0,2,0.0,501.2939999999944
352,21.0,easy,explanation,Experiment 2 (test preview),1,visible,3.0,a,1.0,a,0.0,,,1.0,2,0.0,7958.170999999973
352,21.0,easy,explanation,Experiment 2 (test preview),2,hidden,3.0,a,,b,2.0,,,1.0,2,0.0,8466.572999964235
352,21.0,easy,explanation,Experiment 2 (test preview),3,visible,2.0,a,0.0,b,2.0,,,1.0,1,1.0,2077.534999964293
352,21.0,easy,explanation,Experiment 2 (test preview),4,hidden,0.0,b,,b,2.0,,,2.0,1,0.0,3485.761999988113
352,21.0,easy,explanation,Experiment 2 (test preview),5,hidden,2.0,a,,a,2.0,,,1.0,1,1.0,5132.019999964279
352,21.0,easy,explanation,Experiment 2 (test preview),6,visible,3.0,a,1.0,b,0.0,,,1.0,2,0.0,2104.847999999998
352,21.0,easy,explanation,Experiment 2 (test preview),7,visible,0.0,a,2.0,a,0.0,,,2.0,1,0.0,3253.101999952341
352,21.0,easy,explanation,Experiment 2 (test preview),8,hidden,0.0,b,,a,0.0,,,2.0,1,0.0,2573.8289999642875
352,21.0,easy,explanation,Experiment 2 (test preview),9,visible,3.0,a,0.0,a,2.0,,,1.0,2,0.0,1213.9219999761551
352,21.0,easy,explanation,Experiment 2 (test preview),10,hidden,3.0,b,,a,0.0,,,2.0,2,1.0,972.8909999880708
352,21.0,easy,explanation,Experiment 2 (test preview),11,hidden,3.0,a,,a,2.0,,,1.0,2,0.0,3877.4899999761255
352,21.0,easy,explanation,Experiment 2 (test preview),12,visible,0.0,b,2.0,a,3.0,,,2.0,1,0.0,3029.570999988122
352,21.0,easy,explanation,Experiment 2 (test preview),13,visible,0.0,b,2.0,a,0.0,,,2.0,2,1.0,3474.019999988028
352,21.0,easy,explanation,Experiment 2 (test preview),14,visible,0.0,a,2.0,b,2.0,,,2.0,1,0.0,2740.953999976162
352,21.0,easy,explanation,Experiment 2 (test preview),15,hidden,3.0,a,,b,0.0,,,1.0,2,0.0,2451.0269999642624
352,21.0,easy,explanation,Experiment 2 (test preview),16,visible,0.0,b,2.0,b,2.0,,,2.0,1,0.0,3998.066999964183
352,21.0,easy,explanation,Experiment 2 (test preview),17,hidden,0.0,a,,a,3.0,,,2.0,2,1.0,2773.1809999523684
352,21.0,easy,explanation,Experiment 2 (test preview),18,visible,2.0,a,0.0,a,2.0,,,1.0,1,1.0,4717.652999988059
352,21.0,easy,explanation,Experiment 2 (test preview),19,hidden,2.0,b,,b,2.0,,,2.0,2,1.0,3557.10899997619
352,21.0,easy,explanation,Experiment 2 (test preview),20,hidden,0.0,a,,a,0.0,,,2.0,2,1.0,1978.9389999522828
359,21.0,easy,explanation,Experiment 2 (test preview),1,hidden,3.0,b,,a,0.0,,,2.0,2,1.0,5708.031000023824
359,21.0,easy,explanation,Experiment 2 (test preview),2,hidden,0.0,a,,a,3.0,,,2.0,1,0.0,3190.847999976133
359,21.0,easy,explanation,Experiment 2 (test preview),3,hidden,2.0,b,,b,2.0,,,2.0,1,0.0,795.8099999999977
359,21.0,easy,explanation,Experiment 2 (test preview),4,visible,3.0,a,1.0,b,0.0,,,1.0,1,1.0,754.5860000238172
359,21.0,easy,explanation,Experiment 2 (test preview),5,hidden,3.0,a,,b,0.0,,,1.0,1,1.0,770.2760000238195
359,21.0,easy,explanation,Experiment 2 (test preview),6,hidden,0.0,b,,a,0.0,,,2.0,2,1.0,860.8319999999949
359,21.0,easy,explanation,Experiment 2 (test preview),7,hidden,0.0,b,,b,2.0,,,2.0,1,0.0,1367.1919999523088
359,21.0,easy,explanation,Experiment 2 (test preview),8,visible,0.0,b,2.0,b,2.0,,,2.0,1,0.0,746.2040000476991
359,21.0,easy,explanation,Experiment 2 (test preview),9,hidden,2.0,a,,a,2.0,,,1.0,1,1.0,2134.563999976148
359,21.0,easy,explanation,Experiment 2 (test preview),10,visible,3.0,a,1.0,a,0.0,,,1.0,1,1.0,873.2189999761758
359,21.0,easy,explanation,Experiment 2 (test preview),11,visible,0.0,b,2.0,a,0.0,,,2.0,2,1.0,1069.990999976173
359,21.0,easy,explanation,Experiment 2 (test preview),12,visible,0.0,a,2.0,b,2.0,,,2.0,1,0.0,6342.049999952316
359,21.0,easy,explanation,Experiment 2 (test preview),13,visible,0.0,b,2.0,a,3.0,,,2.0,2,1.0,3381.1180000000168
359,21.0,easy,explanation,Experiment 2 (test preview),14,visible,2.0,a,0.0,b,2.0,,,1.0,1,1.0,668.862999976147
359,21.0,easy,explanation,Experiment 2 (test preview),15,visible,3.0,a,0.0,a,2.0,,,1.0,1,1.0,554.8760000476614
359,21.0,easy,explanation,Experiment 2 (test preview),16,hidden,3.0,a,,b,2.0,,,1.0,1,1.0,1248.0470000238274
359,21.0,easy,explanation,Experiment 2 (test preview),17,hidden,0.0,a,,a,0.0,,,2.0,1,0.0,678.4640000238433
359,21.0,easy,explanation,Experiment 2 (test preview),18,visible,2.0,a,0.0,a,2.0,,,1.0,2,0.0,686.26200004766
359,21.0,easy,explanation,Experiment 2 (test preview),19,visible,0.0,a,2.0,a,0.0,,,2.0,1,0.0,602.7580000477028
359,21.0,easy,explanation,Experiment 2 (test preview),20,hidden,3.0,a,,a,2.0,,,1.0,1,1.0,659.6299999523326
357,21.0,easy,explanation,Experiment 2 (test preview),1,visible,0.0,a,2.0,b,2.0,,,2.0,1,0.0,3600.557999976154
357,21.0,easy,explanation,Experiment 2 (test preview),2,hidden,3.0,a,,b,2.0,,,1.0,1,1.0,2829.1239999761456
357,21.0,easy,explanation,Experiment 2 (test preview),3,visible,2.0,a,0.0,a,2.0,,,1.0,2,0.0,1119.263999988092
357,21.0,easy,explanation,Experiment 2 (test preview),4,hidden,0.0,b,,b,2.0,,,2.0,2,1.0,1406.8740000119142
357,21.0,easy,explanation,Experiment 2 (test preview),5,hidden,3.0,b,,a,0.0,,,2.0,2,1.0,3114.670999964233
357,21.0,easy,explanation,Experiment 2 (test preview),6,visible,3.0,a,0.0,a,2.0,,,1.0,1,1.0,2377.071999976178
357,21.0,easy,explanation,Experiment 2 (test preview),7,hidden,3.0,a,,a,2.0,,,1.0,1,1.0,4365.684999964258
357,21.0,easy,explanation,Experiment 2 (test preview),8,visible,3.0,a,1.0,b,0.0,,,1.0,1,1.0,3395.0030000119004
357,21.0,easy,explanation,Experiment 2 (test preview),9,visible,0.0,b,2.0,a,0.0,,,2.0,2,1.0,4070.2010000119335
357,21.0,easy,explanation,Experiment 2 (test preview),10,hidden,2.0,b,,b,2.0,,,2.0,1,0.0,3951.5509999761703
357,21.0,easy,explanation,Experiment 2 (test preview),11,visible,0.0,b,2.0,a,3.0,,,2.0,2,1.0,3117.767999976175
357,21.0,easy,explanation,Experiment 2 (test preview),12,visible,2.0,a,0.0,b,2.0,,,1.0,2,0.0,1372.8469999761437
357,21.0,easy,explanation,Experiment 2 (test preview),13,hidden,0.0,a,,a,3.0,,,2.0,2,1.0,3297.338999999978
357,21.0,easy,explanation,Experiment 2 (test preview),14,visible,3.0,a,1.0,a,0.0,,,1.0,1,1.0,3576.924000011932
357,21.0,easy,explanation,Experiment 2 (test preview),15,hidden,3.0,a,,b,0.0,,,1.0,1,1.0,4877.155999988085
357,21.0,easy,explanation,Experiment 2 (test preview),16,hidden,0.0,b,,a,0.0,,,2.0,2,1.0,5373.581999964255
357,21.0,easy,explanation,Experiment 2 (test preview),17,visible,0.0,b,2.0,b,2.0,,,2.0,1,0.0,4186.894999988086
357,21.0,easy,explanation,Experiment 2 (test preview),18,hidden,2.0,a,,a,2.0,,,1.0,1,1.0,7533.571000011929
357,21.0,easy,explanation,Experiment 2 (test preview),19,visible,0.0,a,2.0,a,0.0,,,2.0,2,1.0,3373.726999988081
357,21.0,easy,explanation,Experiment 2 (test preview),20,hidden,0.0,a,,a,0.0,,,2.0,2,1.0,5184.84900001192
353,21.0,easy,explanation,Experiment 2 (test preview),1,hidden,0.0,a,,a,3.0,,,2.0,2,1.0,5944.293000005942
353,21.0,easy,explanation,Experiment 2 (test preview),2,hidden,2.0,a,,a,2.0,,,1.0,2,0.0,5933.187000005972
353,21.0,easy,explanation,Experiment 2 (test preview),3,visible,0.0,a,2.0,b,2.0,,,2.0,2,1.0,5627.948000011907
353,21.0,easy,explanation,Experiment 2 (test preview),4,hidden,0.0,b,,b,2.0,,,2.0,2,1.0,9085.075999994064
353,21.0,easy,explanation,Experiment 2 (test preview),5,hidden,0.0,b,,a,0.0,,,2.0,2,1.0,9398.821999999986
353,21.0,easy,explanation,Experiment 2 (test preview),6,hidden,3.0,b,,a,0.0,,,2.0,2,1.0,12825.95299999998
353,21.0,easy,explanation,Experiment 2 (test preview),7,visible,0.0,a,2.0,a,0.0,,,2.0,2,1.0,12175.432999994024
353,21.0,easy,explanation,Experiment 2 (test preview),8,visible,0.0,b,2.0,a,3.0,,,2.0,1,0.0,14956.033000005931
353,21.0,easy,explanation,Experiment 2 (test preview),9,visible,3.0,a,1.0,a,0.0,,,1.0,1,1.0,11289.422000005958
353,21.0,easy,explanation,Experiment 2 (test preview),10,visible,2.0,a,0.0,b,2.0,,,1.0,1,1.0,8714.152000005939
353,21.0,easy,explanation,Experiment 2 (test preview),11,hidden,0.0,a,,a,0.0,,,2.0,2,1.0,4256.787999999942
353,21.0,easy,explanation,Experiment 2 (test preview),12,hidden,3.0,a,,a,2.0,,,1.0,1,1.0,6482.901000006008
353,21.0,easy,explanation,Experiment 2 (test preview),13,hidden,3.0,a,,b,2.0,,,1.0,2,0.0,16972.84300000593
353,21.0,easy,explanation,Experiment 2 (test preview),14,visible,3.0,a,0.0,a,2.0,,,1.0,1,1.0,4150.530999999959
353,21.0,easy,explanation,Experiment 2 (test preview),15,visible,2.0,a,0.0,a,2.0,,,1.0,2,0.0,2882.7480000000214
353,21.0,easy,explanation,Experiment 2 (test preview),16,visible,0.0,b,2.0,a,0.0,,,2.0,2,1.0,2417.6689999999944
353,21.0,easy,explanation,Experiment 2 (test preview),17,hidden,2.0,b,,b,2.0,,,2.0,2,1.0,4546.350999994087
353,21.0,easy,explanation,Experiment 2 (test preview),18,visible,3.0,a,1.0,b,0.0,,,1.0,1,1.0,5341.457999999984
353,21.0,easy,explanation,Experiment 2 (test preview),19,hidden,3.0,a,,b,0.0,,,1.0,1,1.0,4715.322999999975
353,21.0,easy,explanation,Experiment 2 (test preview),20,visible,0.0,b,2.0,b,2.0,,,2.0,2,1.0,1144.636000005994
356,21.0,easy,explanation,Experiment 2 (test preview),1,hidden,3.0,a,,b,0.0,,,1.0,1,1.0,3630.0030000119295
356,21.0,easy,explanation,Experiment 2 (test preview),2,visible,0.0,b,2.0,b,2.0,,,2.0,1,0.0,3129.7520000089426
356,21.0,easy,explanation,Experiment 2 (test preview),3,hidden,0.0,b,,b,2.0,,,2.0,2,1.0,2605.502000011911
356,21.0,easy,explanation,Experiment 2 (test preview),4,hidden,0.0,a,,a,0.0,,,2.0,1,0.0,3257.563000008929
356,21.0,easy,explanation,Experiment 2 (test preview),5,hidden,3.0,a,,b,2.0,,,1.0,1,1.0,1267.081000011909
356,21.0,easy,explanation,Experiment 2 (test preview),6,hidden,0.0,a,,a,3.0,,,2.0,2,1.0,896.804999999993
356,21.0,easy,explanation,Experiment 2 (test preview),7,visible,3.0,a,1.0,b,0.0,,,1.0,1,1.0,666.558000008954
356,21.0,easy,explanation,Experiment 2 (test preview),8,hidden,3.0,b,,a,0.0,,,2.0,2,1.0,1045.2030000000086
356,21.0,easy,explanation,Experiment 2 (test preview),9,visible,3.0,a,1.0,a,0.0,,,1.0,1,1.0,1542.098000008933
356,21.0,easy,explanation,Experiment 2 (test preview),10,visible,0.0,b,2.0,a,3.0,,,2.0,1,0.0,369.2210000059568
356,21.0,easy,explanation,Experiment 2 (test preview),11,visible,0.0,b,2.0,a,0.0,,,2.0,2,1.0,636.1630000059668
356,21.0,easy,explanation,Experiment 2 (test preview),12,hidden,3.0,a,,a,2.0,,,1.0,1,1.0,383.9200000089477
356,21.0,easy,explanation,Experiment 2 (test preview),13,hidden,2.0,a,,a,2.0,,,1.0,1,1.0,525.5320000059728
356,21.0,easy,explanation,Experiment 2 (test preview),14,visible,0.0,a,2.0,b,2.0,,,2.0,1,0.0,820.8510000059614
356,21.0,easy,explanation,Experiment 2 (test preview),15,visible,0.0,a,2.0,a,0.0,,,2.0,2,1.0,1827.424000008934
356,21.0,easy,explanation,Experiment 2 (test preview),16,hidden,2.0,b,,b,2.0,,,2.0,1,0.0,609.038000011933
356,21.0,easy,explanation,Experiment 2 (test preview),17,visible,2.0,a,0.0,a,2.0,,,1.0,1,1.0,1320.9560000029742
356,21.0,easy,explanation,Experiment 2 (test preview),18,visible,3.0,a,0.0,a,2.0,,,1.0,2,0.0,440.12800000596326
356,21.0,easy,explanation,Experiment 2 (test preview),19,hidden,0.0,b,,a,0.0,,,2.0,1,0.0,1011.1880000059608
356,21.0,easy,explanation,Experiment 2 (test preview),20,visible,2.0,a,0.0,b,2.0,,,1.0,1,1.0,550.7950000029814
361,21.0,easy,explanation,Experiment 2 (test preview),1,visible,2.0,a,0.0,b,2.0,,,1.0,1,1.0,2929.8180000000284
361,21.0,easy,explanation,Experiment 2 (test preview),2,hidden,3.0,a,,a,2.0,,,1.0,1,1.0,3723.7040000357674
361,21.0,easy,explanation,Experiment 2 (test preview),3,visible,0.0,b,2.0,b,2.0,,,2.0,2,1.0,1071.1160000238451
361,21.0,easy,explanation,Experiment 2 (test preview),4,hidden,2.0,a,,a,2.0,,,1.0,1,1.0,1315.8790000000154
361,21.0,easy,explanation,Experiment 2 (test preview),5,visible,2.0,a,0.0,a,2.0,,,1.0,1,1.0,1163.7350000238512
361,21.0,easy,explanation,Experiment 2 (test preview),6,visible,0.0,a,2.0,a,0.0,,,2.0,1,0.0,1544.3680000357565
361,21.0,easy,explanation,Experiment 2 (test preview),7,hidden,0.0,b,,a,0.0,,,2.0,1,0.0,3057.079000000027
361,21.0,easy,explanation,Experiment 2 (test preview),8,visible,0.0,a,2.0,b,2.0,,,2.0,2,1.0,2310.366000023845
361,21.0,easy,explanation,Experiment 2 (test preview),9,visible,3.0,a,0.0,a,2.0,,,1.0,1,1.0,765.4830000000075
361,21.0,easy,explanation,Experiment 2 (test preview),10,hidden,0.0,a,,a,3.0,,,2.0,1,0.0,1177.532000035746
361,21.0,easy,explanation,Experiment 2 (test preview),11,hidden,0.0,a,,a,0.0,,,2.0,1,0.0,1181.6009999880916
361,21.0,easy,explanation,Experiment 2 (test preview),12,visible,0.0,b,2.0,a,0.0,,,2.0,2,1.0,4913.248999988078
361,21.0,easy,explanation,Experiment 2 (test preview),13,visible,0.0,b,2.0,a,3.0,,,2.0,2,1.0,1601.1730000000098
361,21.0,easy,explanation,Experiment 2 (test preview),14,hidden,3.0,b,,a,0.0,,,2.0,2,1.0,1023.9100000238396
361,21.0,easy,explanation,Experiment 2 (test preview),15,hidden,0.0,b,,b,2.0,,,2.0,2,1.0,722.6460000000079
361,21.0,easy,explanation,Experiment 2 (test preview),16,visible,3.0,a,1.0,a,0.0,,,1.0,1,1.0,502.62900003575487
361,21.0,easy,explanation,Experiment 2 (test preview),17,hidden,3.0,a,,b,2.0,,,1.0,2,0.0,1253.4409999999916
361,21.0,easy,explanation,Experiment 2 (test preview),18,visible,3.0,a,1.0,b,0.0,,,1.0,2,0.0,618.1629999880679
361,21.0,easy,explanation,Experiment 2 (test preview),19,hidden,2.0,b,,b,2.0,,,2.0,2,1.0,646.6140000000014
361,21.0,easy,explanation,Experiment 2 (test preview),20,hidden,3.0,a,,b,0.0,,,1.0,1,1.0,523.2120000119321
358,21.0,easy,explanation,Experiment 2 (test preview),1,hidden,2.0,b,,b,2.0,,,2.0,1,0.0,11418.66799997614
358,21.0,easy,explanation,Experiment 2 (test preview),2,visible,2.0,a,0.0,b,2.0,,,1.0,2,0.0,8175.327000023855
358,21.0,easy,explanation,Experiment 2 (test preview),3,visible,0.0,b,2.0,a,3.0,,,2.0,1,0.0,8124.845000023837
358,21.0,easy,explanation,Experiment 2 (test preview),4,visible,3.0,a,1.0,a,0.0,,,1.0,1,1.0,3430.054999999993
358,21.0,easy,explanation,Experiment 2 (test preview),5,hidden,2.0,a,,a,2.0,,,1.0,1,1.0,4870.254000011948
358,21.0,easy,explanation,Experiment 2 (test preview),6,hidden,3.0,a,,a,2.0,,,1.0,1,1.0,913.3939999761642
358,21.0,easy,explanation,Experiment 2 (test preview),7,hidden,3.0,a,,b,2.0,,,1.0,1,1.0,1006.9960000238498
358,21.0,easy,explanation,Experiment 2 (test preview),8,visible,0.0,b,2.0,b,2.0,,,2.0,2,1.0,1366.7769999880693
358,21.0,easy,explanation,Experiment 2 (test preview),9,visible,3.0,a,1.0,b,0.0,,,1.0,1,1.0,1251.1230000238284
358,21.0,easy,explanation,Experiment 2 (test preview),10,hidden,0.0,a,,a,0.0,,,2.0,1,0.0,1089.0819999761295
358,21.0,easy,explanation,Experiment 2 (test preview),11,visible,0.0,a,2.0,a,0.0,,,2.0,1,0.0,2446.935000023863
358,21.0,easy,explanation,Experiment 2 (test preview),12,hidden,0.0,a,,a,3.0,,,2.0,1,0.0,1060.673999976134
358,21.0,easy,explanation,Experiment 2 (test preview),13,hidden,3.0,b,,a,0.0,,,2.0,2,1.0,9159.79099997616
358,21.0,easy,explanation,Experiment 2 (test preview),14,visible,3.0,a,0.0,a,2.0,,,1.0,1,1.0,4118.972999988066
358,21.0,easy,explanation,Experiment 2 (test preview),15,hidden,3.0,a,,b,0.0,,,1.0,1,1.0,4178.50499997614
358,21.0,easy,explanation,Experiment 2 (test preview),16,visible,2.0,a,0.0,a,2.0,,,1.0,1,1.0,1229.893000023847
358,21.0,easy,explanation,Experiment 2 (test preview),17,hidden,0.0,b,,a,0.0,,,2.0,2,1.0,3195.8330000238493
358,21.0,easy,explanation,Experiment 2 (test preview),18,visible,0.0,a,2.0,b,2.0,,,2.0,2,1.0,1233.5810000119382
358,21.0,easy,explanation,Experiment 2 (test preview),19,visible,0.0,b,2.0,a,0.0,,,2.0,2,1.0,1240.7799999880954
358,21.0,easy,explanation,Experiment 2 (test preview),20,hidden,0.0,b,,b,2.0,,,2.0,2,1.0,1579.0129999881028
360,21.0,easy,explanation,Experiment 2 (test preview),1,visible,0.0,b,2.0,b,2.0,,,2.0,1,0.0,2867.539999999979
360,21.0,easy,explanation,Experiment 2 (test preview),2,visible,0.0,a,2.0,a,0.0,,,2.0,2,1.0,7465.799999999988
360,21.0,easy,explanation,Experiment 2 (test preview),3,visible,0.0,b,2.0,a,0.0,,,2.0,2,1.0,5884.200000000012
360,21.0,easy,explanation,Experiment 2 (test preview),4,visible,2.0,a,0.0,b,2.0,,,1.0,2,0.0,3461.0599999999977
360,21.0,easy,explanation,Experiment 2 (test preview),5,visible,3.0,a,1.0,b,0.0,,,1.0,1,1.0,913.2399999999908
360,21.0,easy,explanation,Experiment 2 (test preview),6,hidden,0.0,a,,a,0.0,,,2.0,2,1.0,4376.119999999995
360,21.0,easy,explanation,Experiment 2 (test preview),7,hidden,3.0,a,,b,2.0,,,1.0,2,0.0,1845.8400000000256
360,21.0,easy,explanation,Experiment 2 (test preview),8,hidden,0.0,b,,b,2.0,,,2.0,1,0.0,3550.8400000000256
360,21.0,easy,explanation,Experiment 2 (test preview),9,hidden,3.0,a,,a,2.0,,,1.0,2,0.0,3868.3800000000047
360,21.0,easy,explanation,Experiment 2 (test preview),10,hidden,3.0,a,,b,0.0,,,1.0,1,1.0,3835.200000000012
360,21.0,easy,explanation,Experiment 2 (test preview),11,hidden,2.0,b,,b,2.0,,,2.0,2,1.0,1768.2399999999907
360,21.0,easy,explanation,Experiment 2 (test preview),12,visible,3.0,a,0.0,a,2.0,,,1.0,1,1.0,611.7399999999907
360,21.0,easy,explanation,Experiment 2 (test preview),13,visible,2.0,a,0.0,a,2.0,,,1.0,1,1.0,2878.320000000007
360,21.0,easy,explanation,Experiment 2 (test preview),14,visible,0.0,a,2.0,b,2.0,,,2.0,2,1.0,2547.5599999999977
360,21.0,easy,explanation,Experiment 2 (test preview),15,hidden,0.0,a,,a,3.0,,,2.0,2,1.0,1330.2399999999907
360,21.0,easy,explanation,Experiment 2 (test preview),16,hidden,0.0,b,,a,0.0,,,2.0,2,1.0,1462.320000000007
360,21.0,easy,explanation,Experiment 2 (test preview),17,hidden,3.0,b,,a,0.0,,,2.0,2,1.0,803.5599999999977
360,21.0,easy,explanation,Experiment 2 (test preview),18,visible,0.0,b,2.0,a,3.0,,,2.0,2,1.0,689.820000000007
360,21.0,easy,explanation,Experiment 2 (test preview),19,visible,3.0,a,1.0,a,0.0,,,1.0,2,0.0,1760.539999999979
360,21.0,easy,explanation,Experiment 2 (test preview),20,hidden,2.0,a,,a,2.0,,,1.0,1,1.0,772.0999999999767
362,21.0,easy,explanation,Experiment 2 (test preview),1,hidden,2.0,b,,b,2.0,,,2.0,1,0.0,5389.401999976166
362,21.0,easy,explanation,Experiment 2 (test preview),2,visible,3.0,a,1.0,b,0.0,,,1.0,1,1.0,4388.467999982124
362,21.0,easy,explanation,Experiment 2 (test preview),3,visible,0.0,b,2.0,b,2.0,,,2.0,2,1.0,1043.09299998809
362,21.0,easy,explanation,Experiment 2 (test preview),4,hidden,0.0,b,,b,2.0,,,2.0,1,0.0,1629.7509999821195
362,21.0,easy,explanation,Experiment 2 (test preview),5,hidden,0.0,a,,a,3.0,,,2.0,2,1.0,3532.247999994026
362,21.0,easy,explanation,Experiment 2 (test preview),6,hidden,3.0,a,,b,0.0,,,1.0,2,0.0,4955.803000000014
362,21.0,easy,explanation,Experiment 2 (test preview),7,visible,2.0,a,0.0,b,2.0,,,1.0,1,1.0,2691.1389999820967
362,21.0,easy,explanation,Experiment 2 (test preview),8,visible,2.0,a,0.0,a,2.0,,,1.0,1,1.0,6182.237999982142
362,21.0,easy,explanation,Experiment 2 (test preview),9,visible,0.0,a,2.0,a,0.0,,,2.0,2,1.0,3067.369999994058
362,21.0,easy,explanation,Experiment 2 (test preview),10,visible,3.0,a,1.0,a,0.0,,,1.0,2,0.0,4007.153999999981
362,21.0,easy,explanation,Experiment 2 (test preview),11,hidden,2.0,a,,a,2.0,,,1.0,1,1.0,3774.419999982114
362,21.0,easy,explanation,Experiment 2 (test preview),12,visible,3.0,a,0.0,a,2.0,,,1.0,2,0.0,6765.518999982101
362,21.0,easy,explanation,Experiment 2 (test preview),13,hidden,3.0,b,,a,0.0,,,2.0,2,1.0,3237.955999988073
362,21.0,easy,explanation,Experiment 2 (test preview),14,visible,0.0,b,2.0,a,0.0,,,2.0,1,0.0,4895.910999976157
362,21.0,easy,explanation,Experiment 2 (test preview),15,hidden,0.0,a,,a,0.0,,,2.0,1,0.0,1156.5969999761437
362,21.0,easy,explanation,Experiment 2 (test preview),16,hidden,3.0,a,,a,2.0,,,1.0,1,1.0,6576.012999988103
362,21.0,easy,explanation,Experiment 2 (test preview),17,visible,0.0,a,2.0,b,2.0,,,2.0,2,1.0,3936.583999988099
362,21.0,easy,explanation,Experiment 2 (test preview),18,hidden,0.0,b,,a,0.0,,,2.0,2,1.0,2896.0009999761824
362,21.0,easy,explanation,Experiment 2 (test preview),19,visible,0.0,b,2.0,a,3.0,,,2.0,2,1.0,2960.0260000000126
362,21.0,easy,explanation,Experiment 2 (test preview),20,hidden,3.0,a,,b,2.0,,,1.0,1,1.0,3220.030999976152
363,21.0,easy,explanation,Experiment 2 (test preview),1,visible,3.0,a,1.0,a,0.0,,,1.0,1,1.0,7624.0
363,21.0,easy,explanation,Experiment 2 (test preview),2,hidden,0.0,b,,a,0.0,,,2.0,2,1.0,3401.0
363,21.0,easy,explanation,Experiment 2 (test preview),3,visible,0.0,b,2.0,b,2.0,,,2.0,1,0.0,3778.0
363,21.0,easy,explanation,Experiment 2 (test preview),4,hidden,0.0,a,,a,0.0,,,2.0,1,0.0,8725.0
363,21.0,easy,explanation,Experiment 2 (test preview),5,hidden,2.0,b,,b,2.0,,,2.0,1,0.0,4852.0
363,21.0,easy,explanation,Experiment 2 (test preview),6,visible,3.0,a,1.0,b,0.0,,,1.0,2,0.0,3070.0
363,21.0,easy,explanation,Experiment 2 (test preview),7,visible,0.0,b,2.0,a,3.0,,,2.0,2,1.0,891.0
363,21.0,easy,explanation,Experiment 2 (test preview),8,visible,2.0,a,0.0,a,2.0,,,1.0,1,1.0,3719.0
363,21.0,easy,explanation,Experiment 2 (test preview),9,hidden,3.0,a,,a,2.0,,,1.0,1,1.0,3945.000000000058
363,21.0,easy,explanation,Experiment 2 (test preview),10,hidden,0.0,b,,b,2.0,,,2.0,1,0.0,3246.0
363,21.0,easy,explanation,Experiment 2 (test preview),11,visible,0.0,a,2.0,b,2.0,,,2.0,2,1.0,3994.0
363,21.0,easy,explanation,Experiment 2 (test preview),12,hidden,3.0,a,,b,0.0,,,1.0,2,0.0,4320.0
363,21.0,easy,explanation,Experiment 2 (test preview),13,hidden,0.0,a,,a,3.0,,,2.0,1,0.0,3635.0
363,21.0,easy,explanation,Experiment 2 (test preview),14,visible,2.0,a,0.0,b,2.0,,,1.0,2,0.0,4869.0
363,21.0,easy,explanation,Experiment 2 (test preview),15,visible,3.0,a,0.0,a,2.0,,,1.0,1,1.0,1908.0
363,21.0,easy,explanation,Experiment 2 (test preview),16,hidden,3.0,a,,b,2.0,,,1.0,1,1.0,8418.000000000058
363,21.0,easy,explanation,Experiment 2 (test preview),17,hidden,2.0,a,,a,2.0,,,1.0,2,0.0,666.0
363,21.0,easy,explanation,Experiment 2 (test preview),18,visible,0.0,a,2.0,a,0.0,,,2.0,1,0.0,7090.000000000058
363,21.0,easy,explanation,Experiment 2 (test preview),19,visible,0.0,b,2.0,a,0.0,,,2.0,1,0.0,5927.0
363,21.0,easy,explanation,Experiment 2 (test preview),20,hidden,3.0,b,,a,0.0,,,2.0,2,1.0,763.0
364,21.0,easy,explanation,Experiment 2 (test preview),1,visible,3.0,a,1.0,a,0.0,,,1.0,1,1.0,990.745000011928
364,21.0,easy,explanation,Experiment 2 (test preview),2,visible,0.0,a,2.0,a,0.0,,,2.0,1,0.0,858.0930000357621
364,21.0,easy,explanation,Experiment 2 (test preview),3,hidden,0.0,b,,b,2.0,,,2.0,2,1.0,7180.877000035776
364,21.0,easy,explanation,Experiment 2 (test preview),4,hidden,0.0,a,,a,3.0,,,2.0,1,0.0,673.0370000357507
364,21.0,easy,explanation,Experiment 2 (test preview),5,visible,2.0,a,0.0,b,2.0,,,1.0,2,0.0,387.6359999999986
364,21.0,easy,explanation,Experiment 2 (test preview),6,visible,3.0,a,1.0,b,0.0,,,1.0,2,0.0,1861.806000035751
364,21.0,easy,explanation,Experiment 2 (test preview),7,visible,0.0,b,2.0,a,0.0,,,2.0,2,1.0,655.154000035749
364,21.0,easy,explanation,Experiment 2 (test preview),8,hidden,2.0,a,,a,2.0,,,1.0,1,1.0,570.9050000119314
364,21.0,easy,explanation,Experiment 2 (test preview),9,visible,0.0,b,2.0,b,2.0,,,2.0,2,1.0,389.8470000000089
364,21.0,easy,explanation,Experiment 2 (test preview),10,hidden,3.0,a,,a,2.0,,,1.0,1,1.0,684.210000000021
364,21.0,easy,explanation,Experiment 2 (test preview),11,visible,3.0,a,0.0,a,2.0,,,1.0,1,1.0,324.18800003576325
364,21.0,easy,explanation,Experiment 2 (test preview),12,visible,0.0,a,2.0,b,2.0,,,2.0,2,1.0,371.3150000357418
364,21.0,easy,explanation,Experiment 2 (test preview),13,hidden,0.0,b,,a,0.0,,,2.0,2,1.0,433.0090000357595
364,21.0,easy,explanation,Experiment 2 (test preview),14,hidden,0.0,a,,a,0.0,,,2.0,1,0.0,356.295999999973
364,21.0,easy,explanation,Experiment 2 (test preview),15,visible,2.0,a,0.0,a,2.0,,,1.0,1,1.0,464.7610000119312
364,21.0,easy,explanation,Experiment 2 (test preview),16,hidden,3.0,a,,b,2.0,,,1.0,2,0.0,482.1480000238517
364,21.0,easy,explanation,Experiment 2 (test preview),17,hidden,2.0,b,,b,2.0,,,2.0,2,1.0,266.6919999999809
364,21.0,easy,explanation,Experiment 2 (test preview),18,visible,0.0,b,2.0,a,3.0,,,2.0,2,1.0,737.2800000357674
364,21.0,easy,explanation,Experiment 2 (test preview),19,hidden,3.0,a,,b,0.0,,,1.0,2,0.0,4182.951000000001
364,21.0,easy,explanation,Experiment 2 (test preview),20,hidden,3.0,b,,a,0.0,,,2.0,2,1.0,504.5970000000089
365,21.0,easy,explanation,Experiment 2 (test preview),1,hidden,3.0,b,,a,0.0,,,2.0,2,1.0,9184.201
365,21.0,easy,explanation,Experiment 2 (test preview),2,visible,0.0,b,2.0,b,2.0,,,2.0,2,1.0,2604.813000000024
365,21.0,easy,explanation,Experiment 2 (test preview),3,hidden,3.0,a,,a,2.0,,,1.0,1,1.0,2056.858999998891
365,21.0,easy,explanation,Experiment 2 (test preview),4,visible,3.0,a,1.0,a,0.0,,,1.0,1,1.0,2176.380999999237
365,21.0,easy,explanation,Experiment 2 (test preview),5,visible,3.0,a,0.0,a,2.0,,,1.0,1,1.0,731.2089999988675
365,21.0,easy,explanation,Experiment 2 (test preview),6,hidden,0.0,b,,b,2.0,,,2.0,2,1.0,4519.613000000012
365,21.0,easy,explanation,Experiment 2 (test preview),7,visible,3.0,a,1.0,b,0.0,,,1.0,1,1.0,15907.07199999888
365,21.0,easy,explanation,Experiment 2 (test preview),8,visible,0.0,b,2.0,a,3.0,,,2.0,1,0.0,6793.02399999887
365,21.0,easy,explanation,Experiment 2 (test preview),9,visible,2.0,a,0.0,b,2.0,,,1.0,1,1.0,4047.8089999989024
365,21.0,easy,explanation,Experiment 2 (test preview),10,hidden,0.0,b,,a,0.0,,,2.0,2,1.0,3707.1450000000186
365,21.0,easy,explanation,Experiment 2 (test preview),11,visible,0.0,a,2.0,b,2.0,,,2.0,2,1.0,4499.910999999614
365,21.0,easy,explanation,Experiment 2 (test preview),12,visible,0.0,b,2.0,a,0.0,,,2.0,1,0.0,2122.99099999998
365,21.0,easy,explanation,Experiment 2 (test preview),13,hidden,2.0,a,,a,2.0,,,1.0,1,1.0,4026.416999999259
365,21.0,easy,explanation,Experiment 2 (test preview),14,hidden,0.0,a,,a,3.0,,,2.0,2,1.0,7936.673999999999
365,21.0,easy,explanation,Experiment 2 (test preview),15,hidden,2.0,b,,b,2.0,,,2.0,2,1.0,2746.465999998909
365,21.0,easy,explanation,Experiment 2 (test preview),16,visible,2.0,a,0.0,a,2.0,,,1.0,1,1.0,3227.183999999601
365,21.0,easy,explanation,Experiment 2 (test preview),17,hidden,3.0,a,,b,0.0,,,1.0,2,0.0,3392.347000000009
365,21.0,easy,explanation,Experiment 2 (test preview),18,visible,0.0,a,2.0,a,0.0,,,2.0,1,0.0,2592.590999998909
365,21.0,easy,explanation,Experiment 2 (test preview),19,hidden,0.0,a,,a,0.0,,,2.0,1,0.0,2339.695999999647
365,21.0,easy,explanation,Experiment 2 (test preview),20,hidden,3.0,a,,b,2.0,,,1.0,1,1.0,4908.463999998872
366,21.0,easy,explanation,Experiment 2 (test preview),1,visible,0.0,b,2.0,a,0.0,,,2.0,2,1.0,10762.109000000026
366,21.0,easy,explanation,Experiment 2 (test preview),2,visible,2.0,a,0.0,a,2.0,,,1.0,1,1.0,4327.453999999969
366,21.0,easy,explanation,Experiment 2 (test preview),3,visible,0.0,b,2.0,b,2.0,,,2.0,1,0.0,3781.771000000008
366,21.0,easy,explanation,Experiment 2 (test preview),4,hidden,0.0,b,,a,0.0,,,2.0,1,0.0,4661.361999999965
366,21.0,easy,explanation,Experiment 2 (test preview),5,hidden,0.0,a,,a,0.0,,,2.0,1,0.0,3038.435999999987
366,21.0,easy,explanation,Experiment 2 (test preview),6,hidden,0.0,a,,a,3.0,,,2.0,2,1.0,1072.619000000006
366,21.0,easy,explanation,Experiment 2 (test preview),7,hidden,0.0,b,,b,2.0,,,2.0,2,1.0,4464.910999999964
366,21.0,easy,explanation,Experiment 2 (test preview),8,visible,3.0,a,0.0,a,2.0,,,1.0,1,1.0,5090.793999999936
366,21.0,easy,explanation,Experiment 2 (test preview),9,hidden,3.0,b,,a,0.0,,,2.0,2,1.0,4106.585000000021
366,21.0,easy,explanation,Experiment 2 (test preview),10,visible,3.0,a,1.0,a,0.0,,,1.0,2,0.0,1320.4689999999828
366,21.0,easy,explanation,Experiment 2 (test preview),11,hidden,3.0,a,,b,2.0,,,1.0,1,1.0,912.7979999999516
366,21.0,easy,explanation,Experiment 2 (test preview),12,hidden,3.0,a,,b,0.0,,,1.0,1,1.0,1493.8729999999632
366,21.0,easy,explanation,Experiment 2 (test preview),13,hidden,3.0,a,,a,2.0,,,1.0,2,0.0,973.9650000000256
366,21.0,easy,explanation,Experiment 2 (test preview),14,visible,0.0,a,2.0,b,2.0,,,2.0,1,0.0,993.9310000000404
366,21.0,easy,explanation,Experiment 2 (test preview),15,visible,3.0,a,1.0,b,0.0,,,1.0,1,1.0,783.0009999999893
366,21.0,easy,explanation,Experiment 2 (test preview),16,hidden,2.0,a,,a,2.0,,,1.0,2,0.0,945.5680000000284
366,21.0,easy,explanation,Experiment 2 (test preview),17,hidden,2.0,b,,b,2.0,,,2.0,1,0.0,1688.161000000022
366,21.0,easy,explanation,Experiment 2 (test preview),18,visible,2.0,a,0.0,b,2.0,,,1.0,1,1.0,2679.2939999999944
366,21.0,easy,explanation,Experiment 2 (test preview),19,visible,0.0,b,2.0,a,3.0,,,2.0,2,1.0,2303.754000000016
366,21.0,easy,explanation,Experiment 2 (test preview),20,visible,0.0,a,2.0,a,0.0,,,2.0,2,1.0,510.9189999999944
367,21.0,easy,explanation,Experiment 2 (test preview),1,hidden,3.0,a,,b,0.0,,,1.0,1,1.0,5716.92300000001
367,21.0,easy,explanation,Experiment 2 (test preview),2,visible,0.0,b,2.0,a,0.0,,,2.0,2,1.0,1192.2249999642372
367,21.0,easy,explanation,Experiment 2 (test preview),3,visible,0.0,a,2.0,b,2.0,,,2.0,2,1.0,516.8329999880807
367,21.0,easy,explanation,Experiment 2 (test preview),4,visible,2.0,a,0.0,b,2.0,,,1.0,1,1.0,917.2849999880708
367,21.0,easy,explanation,Experiment 2 (test preview),5,hidden,0.0,b,,b,2.0,,,2.0,2,1.0,1460.4840000119293
367,21.0,easy,explanation,Experiment 2 (test preview),6,hidden,0.0,a,,a,3.0,,,2.0,2,1.0,898.9920000119309
367,21.0,easy,explanation,Experiment 2 (test preview),7,visible,2.0,a,0.0,a,2.0,,,1.0,2,0.0,501.76500001191744
367,21.0,easy,explanation,Experiment 2 (test preview),8,hidden,0.0,b,,a,0.0,,,2.0,1,0.0,3107.4709999999905
367,21.0,easy,explanation,Experiment 2 (test preview),9,hidden,2.0,a,,a,2.0,,,1.0,1,1.0,584.944999976171
367,21.0,easy,explanation,Experiment 2 (test preview),10,hidden,0.0,a,,a,0.0,,,2.0,1,0.0,499.9719999880763
367,21.0,easy,explanation,Experiment 2 (test preview),11,visible,3.0,a,1.0,a,0.0,,,1.0,2,0.0,637.3679999761516
367,21.0,easy,explanation,Experiment 2 (test preview),12,hidden,3.0,a,,a,2.0,,,1.0,2,0.0,513.5690000119212
367,21.0,easy,explanation,Experiment 2 (test preview),13,visible,0.0,b,2.0,b,2.0,,,2.0,2,1.0,672.1320000119158
367,21.0,easy,explanation,Experiment 2 (test preview),14,hidden,3.0,b,,a,0.0,,,2.0,1,0.0,1199.6809999761754
367,21.0,easy,explanation,Experiment 2 (test preview),15,visible,0.0,a,2.0,a,0.0,,,2.0,1,0.0,498.4270000118995
367,21.0,easy,explanation,Experiment 2 (test preview),16,visible,3.0,a,0.0,a,2.0,,,1.0,1,1.0,516.0000000119326
367,21.0,easy,explanation,Experiment 2 (test preview),17,hidden,3.0,a,,b,2.0,,,1.0,1,1.0,561.5209999761428
367,21.0,easy,explanation,Experiment 2 (test preview),18,visible,3.0,a,1.0,b,0.0,,,1.0,1,1.0,349.72299999999814
367,21.0,easy,explanation,Experiment 2 (test preview),19,hidden,2.0,b,,b,2.0,,,2.0,2,1.0,799.6919999999809
367,21.0,easy,explanation,Experiment 2 (test preview),20,visible,0.0,b,2.0,a,3.0,,,2.0,2,1.0,507.7519999761717
368,21.0,easy,explanation,Experiment 2 (test preview),1,visible,0.0,b,2.0,b,2.0,,,2.0,1,0.0,9789.631999994046
368,21.0,easy,explanation,Experiment 2 (test preview),2,visible,3.0,a,1.0,a,0.0,,,1.0,2,0.0,1264.2379999880795
368,21.0,easy,explanation,Experiment 2 (test preview),3,hidden,0.0,a,,a,3.0,,,2.0,2,1.0,1539.9899999880872
368,21.0,easy,explanation,Experiment 2 (test preview),4,hidden,3.0,b,,a,0.0,,,2.0,1,0.0,5922.048999994062
368,21.0,easy,explanation,Experiment 2 (test preview),5,visible,2.0,a,0.0,b,2.0,,,1.0,2,0.0,1093.5139999940293
368,21.0,easy,explanation,Experiment 2 (test preview),6,visible,0.0,a,2.0,a,0.0,,,2.0,1,0.0,2151.6450000000186
368,21.0,easy,explanation,Experiment 2 (test preview),7,visible,3.0,a,0.0,a,2.0,,,1.0,2,0.0,704.9179999940679
368,21.0,easy,explanation,Experiment 2 (test preview),8,hidden,3.0,a,,b,0.0,,,1.0,1,1.0,1391.8679999940214
368,21.0,easy,explanation,Experiment 2 (test preview),9,visible,3.0,a,1.0,b,0.0,,,1.0,2,0.0,2186.8859999940614
368,21.0,easy,explanation,Experiment 2 (test preview),10,visible,0.0,a,2.0,b,2.0,,,2.0,1,0.0,827.3470000000088
368,21.0,easy,explanation,Experiment 2 (test preview),11,visible,2.0,a,0.0,a,2.0,,,1.0,2,0.0,3211.011999999988
368,21.0,easy,explanation,Experiment 2 (test preview),12,hidden,0.0,b,,b,2.0,,,2.0,1,0.0,1460.8740000000107
368,21.0,easy,explanation,Experiment 2 (test preview),13,visible,0.0,b,2.0,a,3.0,,,2.0,2,1.0,467.26699999999255
368,21.0,easy,explanation,Experiment 2 (test preview),14,hidden,3.0,a,,a,2.0,,,1.0,1,1.0,385.39199999999255
368,21.0,easy,explanation,Experiment 2 (test preview),15,hidden,0.0,b,,a,0.0,,,2.0,2,1.0,654.7159999761498
368,21.0,easy,explanation,Experiment 2 (test preview),16,hidden,3.0,a,,b,2.0,,,1.0,1,1.0,700.6109999761684
368,21.0,easy,explanation,Experiment 2 (test preview),17,hidden,2.0,b,,b,2.0,,,2.0,1,0.0,1375.563999976148
368,21.0,easy,explanation,Experiment 2 (test preview),18,hidden,0.0,a,,a,0.0,,,2.0,1,0.0,611.2839999761782
368,21.0,easy,explanation,Experiment 2 (test preview),19,visible,0.0,b,2.0,a,0.0,,,2.0,2,1.0,1768.1719999761551
368,21.0,easy,explanation,Experiment 2 (test preview),20,hidden,2.0,a,,a,2.0,,,1.0,1,1.0,850.2089999999735
83,22.0,hard,explanation,Experiment 2 (test preview),1,hidden,3.0,b,,a,2.0,,,2.0,1,0.0,1354.5219999523251
83,22.0,hard,explanation,Experiment 2 (test preview),2,hidden,1.0,b,,a,2.0,,,1.0,2,0.0,1103.5499999523165
83,22.0,hard,explanation,Experiment 2 (test preview),3,visible,1.0,b,3.0,a,2.0,,,1.0,2,0.0,965.4680000476656
83,22.0,hard,explanation,Experiment 2 (test preview),4,hidden,2.0,b,,b,3.0,,,1.0,1,1.0,798.6739999999991
83,22.0,hard,explanation,Experiment 2 (test preview),5,hidden,1.0,a,,a,0.0,,,2.0,1,0.0,912.3800000476768
83,22.0,hard,explanation,Experiment 2 (test preview),6,visible,0.0,a,3.0,a,0.0,,,2.0,2,1.0,1200.3909999523312
83,22.0,hard,explanation,Experiment 2 (test preview),7,visible,3.0,a,0.0,b,3.0,,,1.0,1,1.0,1780.8130000476958
83,22.0,hard,explanation,Experiment 2 (test preview),8,hidden,2.0,b,,a,1.0,,,1.0,2,0.0,943.1710000477032
83,22.0,hard,explanation,Experiment 2 (test preview),9,hidden,3.0,b,,b,3.0,,,2.0,1,0.0,777.7829999523237
83,22.0,hard,explanation,Experiment 2 (test preview),10,visible,2.0,b,1.0,b,1.0,,,1.0,1,1.0,1305.155000000028
83,22.0,hard,explanation,Experiment 2 (test preview),11,visible,3.0,b,2.0,a,2.0,,,2.0,2,1.0,2409.0949999523
83,22.0,hard,explanation,Experiment 2 (test preview),12,visible,0.0,b,3.0,b,3.0,,,2.0,1,0.0,1060.399000047706
83,22.0,hard,explanation,Experiment 2 (test preview),13,hidden,2.0,a,,b,1.0,,,2.0,2,1.0,736.9159999522963
83,22.0,hard,explanation,Experiment 2 (test preview),14,visible,3.0,a,2.0,b,1.0,,,2.0,2,1.0,480.4860000477056
83,22.0,hard,explanation,Experiment 2 (test preview),15,visible,1.0,a,0.0,a,3.0,,,1.0,1,1.0,1502.2550000476767
83,22.0,hard,explanation,Experiment 2 (test preview),16,hidden,1.0,b,,b,2.0,,,1.0,1,1.0,624.8889999522944
83,22.0,hard,explanation,Experiment 2 (test preview),17,hidden,3.0,a,,a,3.0,,,1.0,2,0.0,727.1549999761628
83,22.0,hard,explanation,Experiment 2 (test preview),18,visible,2.0,b,1.0,a,1.0,,,1.0,1,1.0,556.5339999999851
83,22.0,hard,explanation,Experiment 2 (test preview),19,visible,3.0,b,2.0,b,0.0,,,2.0,1,0.0,1649.6300000238698
83,22.0,hard,explanation,Experiment 2 (test preview),20,hidden,0.0,a,,a,0.0,,,2.0,2,1.0,688.7080000238493
84,22.0,hard,explanation,Experiment 2 (test preview),1,hidden,2.0,a,,b,1.0,,,2.0,1,0.0,1393.5659999761556
84,22.0,hard,explanation,Experiment 2 (test preview),2,hidden,1.0,b,,a,2.0,,,1.0,2,0.0,2231.655999976152
84,22.0,hard,explanation,Experiment 2 (test preview),3,visible,1.0,b,3.0,a,2.0,,,1.0,1,1.0,3742.053999976168
84,22.0,hard,explanation,Experiment 2 (test preview),4,visible,2.0,b,1.0,a,1.0,,,1.0,2,0.0,5025.415000023844
84,22.0,hard,explanation,Experiment 2 (test preview),5,hidden,3.0,b,,a,2.0,,,2.0,2,1.0,7463.056999999972
84,22.0,hard,explanation,Experiment 2 (test preview),6,visible,3.0,b,2.0,a,2.0,,,2.0,1,0.0,2791.143000023847
84,22.0,hard,explanation,Experiment 2 (test preview),7,hidden,3.0,a,,a,3.0,,,1.0,2,0.0,1622.9629999999888
84,22.0,hard,explanation,Experiment 2 (test preview),8,visible,3.0,a,2.0,b,1.0,,,2.0,2,1.0,794.2379999880795
84,22.0,hard,explanation,Experiment 2 (test preview),9,visible,2.0,b,1.0,b,1.0,,,1.0,2,0.0,3553.6119999761577
84,22.0,hard,explanation,Experiment 2 (test preview),10,hidden,1.0,b,,b,2.0,,,1.0,1,1.0,2442.8969999880646
84,22.0,hard,explanation,Experiment 2 (test preview),11,hidden,2.0,b,,a,1.0,,,1.0,1,1.0,2366.7030000238447
84,22.0,hard,explanation,Experiment 2 (test preview),12,hidden,0.0,a,,a,0.0,,,2.0,1,0.0,1631.0360000118962
84,22.0,hard,explanation,Experiment 2 (test preview),13,visible,1.0,a,0.0,a,3.0,,,1.0,2,0.0,3050.710000023828
84,22.0,hard,explanation,Experiment 2 (test preview),14,visible,0.0,a,3.0,a,0.0,,,2.0,2,1.0,376.8979999999865
84,22.0,hard,explanation,Experiment 2 (test preview),15,hidden,1.0,a,,a,0.0,,,2.0,2,1.0,760.0220000119298
84,22.0,hard,explanation,Experiment 2 (test preview),16,visible,3.0,b,2.0,b,0.0,,,2.0,2,1.0,2278.427999988082
84,22.0,hard,explanation,Experiment 2 (test preview),17,hidden,2.0,b,,b,3.0,,,1.0,2,0.0,834.320000000007
84,22.0,hard,explanation,Experiment 2 (test preview),18,visible,3.0,a,0.0,b,3.0,,,1.0,2,0.0,538.4959999999846
84,22.0,hard,explanation,Experiment 2 (test preview),19,hidden,3.0,b,,b,3.0,,,2.0,2,1.0,416.4920000238344
84,22.0,hard,explanation,Experiment 2 (test preview),20,visible,0.0,b,3.0,b,3.0,,,2.0,2,1.0,461.4840000238619
85,22.0,hard,explanation,Experiment 2 (test preview),1,visible,1.0,b,3.0,a,2.0,,,1.0,1,1.0,2057.1000000119093
85,22.0,hard,explanation,Experiment 2 (test preview),2,hidden,1.0,b,,a,2.0,,,1.0,1,1.0,2605.8500000357744
85,22.0,hard,explanation,Experiment 2 (test preview),3,hidden,1.0,b,,b,2.0,,,1.0,2,0.0,504.4950000119279
85,22.0,hard,explanation,Experiment 2 (test preview),4,visible,3.0,b,2.0,b,0.0,,,2.0,2,1.0,1613.28200001191
85,22.0,hard,explanation,Experiment 2 (test preview),5,hidden,1.0,a,,a,0.0,,,2.0,1,0.0,823.849000035756
85,22.0,hard,explanation,Experiment 2 (test preview),6,visible,0.0,a,3.0,a,0.0,,,2.0,2,1.0,805.7430000476888
85,22.0,hard,explanation,Experiment 2 (test preview),7,hidden,2.0,b,,b,3.0,,,1.0,2,0.0,154.2690000119328
85,22.0,hard,explanation,Experiment 2 (test preview),8,visible,3.0,a,0.0,b,3.0,,,1.0,1,1.0,386.41500000000815
85,22.0,hard,explanation,Experiment 2 (test preview),9,visible,3.0,b,2.0,a,2.0,,,2.0,2,1.0,445.6359999999986
85,22.0,hard,explanation,Experiment 2 (test preview),10,visible,0.0,b,3.0,b,3.0,,,2.0,1,0.0,280.67600003577536
85,22.0,hard,explanation,Experiment 2 (test preview),11,hidden,3.0,a,,a,3.0,,,1.0,1,1.0,2219.845000047673
85,22.0,hard,explanation,Experiment 2 (test preview),12,visible,2.0,b,1.0,b,1.0,,,1.0,2,0.0,420.1670000238519
85,22.0,hard,explanation,Experiment 2 (test preview),13,visible,1.0,a,0.0,a,3.0,,,1.0,1,1.0,659.747000000003
85,22.0,hard,explanation,Experiment 2 (test preview),14,hidden,3.0,b,,a,2.0,,,2.0,1,0.0,437.6030000357714
85,22.0,hard,explanation,Experiment 2 (test preview),15,hidden,3.0,b,,b,3.0,,,2.0,2,1.0,139.07900002383394
85,22.0,hard,explanation,Experiment 2 (test preview),16,hidden,0.0,a,,a,0.0,,,2.0,2,1.0,471.61999999999534
85,22.0,hard,explanation,Experiment 2 (test preview),17,hidden,2.0,a,,b,1.0,,,2.0,2,1.0,170.0090000476921
85,22.0,hard,explanation,Experiment 2 (test preview),18,visible,2.0,b,1.0,a,1.0,,,1.0,1,1.0,319.7120000238647
85,22.0,hard,explanation,Experiment 2 (test preview),19,visible,3.0,a,2.0,b,1.0,,,2.0,2,1.0,326.01100002386374
85,22.0,hard,explanation,Experiment 2 (test preview),20,hidden,2.0,b,,a,1.0,,,1.0,2,0.0,310.6290000238223
86,22.0,hard,explanation,Experiment 2 (test preview),1,visible,2.0,b,1.0,a,1.0,,,1.0,2,0.0,5160.304999995511
86,22.0,hard,explanation,Experiment 2 (test preview),2,hidden,2.0,b,,a,1.0,,,1.0,2,0.0,7660.435999999987
86,22.0,hard,explanation,Experiment 2 (test preview),3,visible,3.0,b,2.0,a,2.0,,,2.0,1,0.0,5345.712999994052
86,22.0,hard,explanation,Experiment 2 (test preview),4,hidden,2.0,b,,b,3.0,,,1.0,2,0.0,4356.110999999975
86,22.0,hard,explanation,Experiment 2 (test preview),5,hidden,1.0,b,,b,2.0,,,1.0,1,1.0,4310.854999994044
86,22.0,hard,explanation,Experiment 2 (test preview),6,visible,1.0,b,3.0,a,2.0,,,1.0,2,0.0,2035.236999996996
86,22.0,hard,explanation,Experiment 2 (test preview),7,hidden,3.0,a,,a,3.0,,,1.0,1,1.0,3699.533999994048
86,22.0,hard,explanation,Experiment 2 (test preview),8,visible,2.0,b,1.0,b,1.0,,,1.0,1,1.0,7064.383999994025
86,22.0,hard,explanation,Experiment 2 (test preview),9,visible,3.0,b,2.0,b,0.0,,,2.0,2,1.0,2629.25
86,22.0,hard,explanation,Experiment 2 (test preview),10,visible,0.0,b,3.0,b,3.0,,,2.0,1,0.0,2357.408999995503
86,22.0,hard,explanation,Experiment 2 (test preview),11,visible,1.0,a,0.0,a,3.0,,,1.0,2,0.0,4871.968999997014
86,22.0,hard,explanation,Experiment 2 (test preview),12,hidden,1.0,b,,a,2.0,,,1.0,2,0.0,3158.337999994052
86,22.0,hard,explanation,Experiment 2 (test preview),13,hidden,0.0,a,,a,0.0,,,2.0,1,0.0,937.3499999940396
86,22.0,hard,explanation,Experiment 2 (test preview),14,hidden,3.0,b,,b,3.0,,,2.0,1,0.0,6373.607999998494
86,22.0,hard,explanation,Experiment 2 (test preview),15,visible,3.0,a,0.0,b,3.0,,,1.0,2,0.0,4591.180999994045
86,22.0,hard,explanation,Experiment 2 (test preview),16,hidden,2.0,a,,b,1.0,,,2.0,1,0.0,4776.243999994011
86,22.0,hard,explanation,Experiment 2 (test preview),17,hidden,1.0,a,,a,0.0,,,2.0,2,1.0,2018.5260000000128
86,22.0,hard,explanation,Experiment 2 (test preview),18,visible,0.0,a,3.0,a,0.0,,,2.0,2,1.0,3658.779999994033
86,22.0,hard,explanation,Experiment 2 (test preview),19,visible,3.0,a,2.0,b,1.0,,,2.0,2,1.0,1265.6249999940628
86,22.0,hard,explanation,Experiment 2 (test preview),20,hidden,3.0,b,,a,2.0,,,2.0,2,1.0,5616.460999998497
87,22.0,hard,explanation,Experiment 2 (test preview),1,visible,3.0,b,2.0,a,2.0,,,2.0,2,1.0,7852.575000000361
87,22.0,hard,explanation,Experiment 2 (test preview),2,visible,2.0,b,1.0,b,1.0,,,1.0,1,1.0,10751.080999999656
87,22.0,hard,explanation,Experiment 2 (test preview),3,hidden,3.0,b,,b,3.0,,,2.0,1,0.0,7131.857999999251
87,22.0,hard,explanation,Experiment 2 (test preview),4,hidden,1.0,b,,b,2.0,,,1.0,2,0.0,3462.535999999265
87,22.0,hard,explanation,Experiment 2 (test preview),5,hidden,1.0,a,,a,0.0,,,2.0,2,1.0,11229.516999999993
87,22.0,hard,explanation,Experiment 2 (test preview),6,visible,0.0,b,3.0,b,3.0,,,2.0,1,0.0,7374.267999999633
87,22.0,hard,explanation,Experiment 2 (test preview),7,hidden,2.0,b,,b,3.0,,,1.0,2,0.0,4658.445999999996
87,22.0,hard,explanation,Experiment 2 (test preview),8,visible,3.0,a,2.0,b,1.0,,,2.0,2,1.0,8229.393999999622
87,22.0,hard,explanation,Experiment 2 (test preview),9,hidden,1.0,b,,a,2.0,,,1.0,2,0.0,6506.746999999974
87,22.0,hard,explanation,Experiment 2 (test preview),10,visible,1.0,a,0.0,a,3.0,,,1.0,1,1.0,4432.794999999984
87,22.0,hard,explanation,Experiment 2 (test preview),11,hidden,0.0,a,,a,0.0,,,2.0,1,0.0,3802.242000000028
87,22.0,hard,explanation,Experiment 2 (test preview),12,hidden,3.0,a,,a,3.0,,,1.0,1,1.0,820.2540000000154
87,22.0,hard,explanation,Experiment 2 (test preview),13,visible,0.0,a,3.0,a,0.0,,,2.0,2,1.0,2224.8189999996102
87,22.0,hard,explanation,Experiment 2 (test preview),14,visible,1.0,b,3.0,a,2.0,,,1.0,1,1.0,4719.130999999994
87,22.0,hard,explanation,Experiment 2 (test preview),15,hidden,2.0,a,,b,1.0,,,2.0,2,1.0,2657.418000000005
87,22.0,hard,explanation,Experiment 2 (test preview),16,visible,3.0,a,0.0,b,3.0,,,1.0,2,0.0,9346.629000000015
87,22.0,hard,explanation,Experiment 2 (test preview),17,visible,3.0,b,2.0,b,0.0,,,2.0,2,1.0,11599.302999999609
87,22.0,hard,explanation,Experiment 2 (test preview),18,hidden,3.0,b,,a,2.0,,,2.0,2,1.0,1664.9230000000098
87,22.0,hard,explanation,Experiment 2 (test preview),19,visible,2.0,b,1.0,a,1.0,,,1.0,1,1.0,1304.2679999999818
87,22.0,hard,explanation,Experiment 2 (test preview),20,hidden,2.0,b,,a,1.0,,,1.0,1,1.0,5112.4460000003455
88,22.0,hard,explanation,Experiment 2 (test preview),1,visible,1.0,b,3.0,a,2.0,,,1.0,1,1.0,4325.0
88,22.0,hard,explanation,Experiment 2 (test preview),2,visible,0.0,a,3.0,a,0.0,,,2.0,1,0.0,7994.0
88,22.0,hard,explanation,Experiment 2 (test preview),3,hidden,3.0,b,,a,2.0,,,2.0,1,0.0,6925.0
88,22.0,hard,explanation,Experiment 2 (test preview),4,hidden,3.0,a,,a,3.0,,,1.0,2,0.0,1313.0
88,22.0,hard,explanation,Experiment 2 (test preview),5,hidden,0.0,a,,a,0.0,,,2.0,1,0.0,1542.000000000029
88,22.0,hard,explanation,Experiment 2 (test preview),6,hidden,3.0,b,,b,3.0,,,2.0,1,0.0,1026.0
88,22.0,hard,explanation,Experiment 2 (test preview),7,visible,0.0,b,3.0,b,3.0,,,2.0,1,0.0,1428.0
88,22.0,hard,explanation,Experiment 2 (test preview),8,hidden,2.0,b,,a,1.0,,,1.0,2,0.0,2292.0
88,22.0,hard,explanation,Experiment 2 (test preview),9,visible,3.0,b,2.0,a,2.0,,,2.0,1,0.0,330.0
88,22.0,hard,explanation,Experiment 2 (test preview),10,hidden,2.0,b,,b,3.0,,,1.0,1,1.0,731.0
88,22.0,hard,explanation,Experiment 2 (test preview),11,visible,2.0,b,1.0,b,1.0,,,1.0,1,1.0,201.0
88,22.0,hard,explanation,Experiment 2 (test preview),12,visible,3.0,b,2.0,b,0.0,,,2.0,2,1.0,1862.0
88,22.0,hard,explanation,Experiment 2 (test preview),13,hidden,1.0,a,,a,0.0,,,2.0,1,0.0,642.0
88,22.0,hard,explanation,Experiment 2 (test preview),14,visible,2.0,b,1.0,a,1.0,,,1.0,1,1.0,256.0
88,22.0,hard,explanation,Experiment 2 (test preview),15,hidden,2.0,a,,b,1.0,,,2.0,2,1.0,976.0
88,22.0,hard,explanation,Experiment 2 (test preview),16,visible,1.0,a,0.0,a,3.0,,,1.0,1,1.0,783.0
88,22.0,hard,explanation,Experiment 2 (test preview),17,hidden,1.0,b,,b,2.0,,,1.0,2,0.0,2520.0
88,22.0,hard,explanation,Experiment 2 (test preview),18,visible,3.0,a,2.0,b,1.0,,,2.0,1,0.0,401.0000000000582
88,22.0,hard,explanation,Experiment 2 (test preview),19,hidden,1.0,b,,a,2.0,,,1.0,2,0.0,1671.0
88,22.0,hard,explanation,Experiment 2 (test preview),20,visible,3.0,a,0.0,b,3.0,,,1.0,2,0.0,1366.0
90,22.0,hard,explanation,Experiment 2 (test preview),1,visible,0.0,b,3.0,b,3.0,,,2.0,2,1.0,4470.814000001468
90,22.0,hard,explanation,Experiment 2 (test preview),2,visible,1.0,b,3.0,a,2.0,,,1.0,2,0.0,16012.346000000718
90,22.0,hard,explanation,Experiment 2 (test preview),3,hidden,2.0,b,,a,1.0,,,1.0,2,0.0,6403.427999999258
90,22.0,hard,explanation,Experiment 2 (test preview),4,hidden,2.0,a,,b,1.0,,,2.0,2,1.0,7117.341000000772
90,22.0,hard,explanation,Experiment 2 (test preview),5,hidden,1.0,b,,a,2.0,,,1.0,2,0.0,6324.871000001498
90,22.0,hard,explanation,Experiment 2 (test preview),6,hidden,0.0,a,,a,0.0,,,2.0,1,0.0,2680.844999998517
90,22.0,hard,explanation,Experiment 2 (test preview),7,hidden,3.0,b,,b,3.0,,,2.0,1,0.0,2633.94799999852
90,22.0,hard,explanation,Experiment 2 (test preview),8,hidden,1.0,a,,a,0.0,,,2.0,2,1.0,1736.8470000000088
