participant_id,fsm_number,fsm_type,test_condition,learning_condition,trial_number,trial_type,state_1,response_1,state_2,response_2,state_3,option_1,option_2,correctResponse,response,response_correct,response_time
165,22.0,hard,control,Experiment 1 (no preview),1,hidden,1.0,,,,3.0,ab,ba,ab,ba,0.0,4694.036000095366
165,22.0,hard,control,Experiment 1 (no preview),2,hidden,2.0,,,,1.0,ba,ab,ab,ab,1.0,6457.54800000001
165,22.0,hard,control,Experiment 1 (no preview),3,hidden,3.0,,,,1.0,ba,bb,bb,bb,1.0,7118.08800004769
165,22.0,hard,control,Experiment 1 (no preview),4,visible,0.0,b,3.0,,3.0,a,b,b,b,1.0,2537.9190000238304
165,22.0,hard,control,Experiment 1 (no preview),5,visible,1.0,a,1.0,,0.0,a,b,a,b,0.0,1656.1240000238467
165,22.0,hard,control,Experiment 1 (no preview),6,visible,3.0,a,2.0,,2.0,a,b,a,a,1.0,500.6550000715361
165,22.0,hard,control,Experiment 1 (no preview),7,visible,3.0,b,2.0,,1.0,a,b,b,a,0.0,16902.52200004767
165,22.0,hard,control,Experiment 1 (no preview),8,hidden,1.0,,,,2.0,ab,ba,ba,ba,1.0,1741.3000000476895
165,22.0,hard,control,Experiment 1 (no preview),9,visible,2.0,a,2.0,,2.0,a,b,a,a,1.0,577.4260000715149
165,22.0,hard,control,Experiment 1 (no preview),10,hidden,0.0,,,,3.0,aa,ab,ab,ab,1.0,2060.771000000008
165,22.0,hard,control,Experiment 1 (no preview),11,hidden,0.0,,,,0.0,aa,bb,aa,aa,1.0,4037.4220000715286
165,22.0,hard,control,Experiment 1 (no preview),12,visible,2.0,a,2.0,,0.0,a,b,b,b,1.0,1254.094000047684
165,22.0,hard,control,Experiment 1 (no preview),13,hidden,2.0,,,,3.0,ba,ab,ba,ba,1.0,3344.33400007154
165,22.0,hard,control,Experiment 1 (no preview),14,visible,2.0,a,2.0,,1.0,a,b,b,b,1.0,787.7590000476921
165,22.0,hard,control,Experiment 1 (no preview),15,hidden,1.0,,,,0.0,aa,bb,aa,bb,0.0,1218.9990000238176
165,22.0,hard,control,Experiment 1 (no preview),16,visible,1.0,b,1.0,,3.0,a,b,b,a,0.0,969.576000047673
165,22.0,hard,control,Experiment 1 (no preview),17,visible,0.0,a,3.0,,0.0,a,b,a,a,1.0,2548.6330000715097
165,22.0,hard,control,Experiment 1 (no preview),18,hidden,1.0,,,,3.0,aa,ba,aa,ba,0.0,2654.304000071541
165,22.0,hard,control,Experiment 1 (no preview),19,hidden,3.0,,,,3.0,aa,ba,aa,aa,1.0,1710.405000000028
165,22.0,hard,control,Experiment 1 (no preview),20,visible,2.0,b,1.0,,0.0,a,b,a,b,0.0,1268.3059999999823
169,22.0,hard,control,Experiment 1 (no preview),1,hidden,1.0,,,,2.0,ab,ba,ba,ba,1.0,11974.0
169,22.0,hard,control,Experiment 1 (no preview),2,hidden,3.0,,,,1.0,ba,bb,bb,ba,0.0,40175.0
169,22.0,hard,control,Experiment 1 (no preview),3,hidden,1.0,,,,3.0,ab,ba,ab,ab,1.0,6540.0
169,22.0,hard,control,Experiment 1 (no preview),4,visible,0.0,b,3.0,,3.0,a,b,b,b,1.0,3124.0
169,22.0,hard,control,Experiment 1 (no preview),5,visible,1.0,a,1.0,,0.0,a,b,a,b,0.0,16208.0
169,22.0,hard,control,Experiment 1 (no preview),6,hidden,2.0,,,,3.0,ba,ab,ba,ab,0.0,5274.0
169,22.0,hard,control,Experiment 1 (no preview),7,hidden,0.0,,,,0.0,aa,bb,aa,aa,1.0,2990.0
169,22.0,hard,control,Experiment 1 (no preview),8,hidden,1.0,,,,3.0,aa,ba,aa,ba,0.0,3973.0
169,22.0,hard,control,Experiment 1 (no preview),9,visible,1.0,b,1.0,,3.0,a,b,b,a,0.0,7556.0
169,22.0,hard,control,Experiment 1 (no preview),10,visible,2.0,a,2.0,,0.0,a,b,b,b,1.0,4991.000000000058
169,22.0,hard,control,Experiment 1 (no preview),11,hidden,1.0,,,,0.0,aa,bb,aa,aa,1.0,16356.000000000058
169,22.0,hard,control,Experiment 1 (no preview),12,hidden,0.0,,,,3.0,aa,ab,ab,aa,0.0,10474.000000000058
169,22.0,hard,control,Experiment 1 (no preview),13,visible,0.0,a,3.0,,0.0,a,b,a,a,1.0,4707.000000000058
169,22.0,hard,control,Experiment 1 (no preview),14,hidden,3.0,,,,3.0,aa,ba,aa,aa,1.0,3273.0
169,22.0,hard,control,Experiment 1 (no preview),15,visible,2.0,a,2.0,,2.0,a,b,a,a,1.0,2240.0
169,22.0,hard,control,Experiment 1 (no preview),16,hidden,2.0,,,,1.0,ba,ab,ab,ba,0.0,1840.0000000000584
169,22.0,hard,control,Experiment 1 (no preview),17,visible,3.0,b,2.0,,1.0,a,b,b,a,0.0,806.0
169,22.0,hard,control,Experiment 1 (no preview),18,visible,2.0,b,1.0,,0.0,a,b,a,a,1.0,5490.0
169,22.0,hard,control,Experiment 1 (no preview),19,visible,3.0,a,2.0,,2.0,a,b,a,a,1.0,557.0
169,22.0,hard,control,Experiment 1 (no preview),20,visible,2.0,a,2.0,,1.0,a,b,b,b,1.0,3790.000000000058
172,21.0,easy,control,Experiment 1 (no preview),1,visible,0.0,b,2.0,,3.0,a,b,a,a,1.0,1922.0519999880928
172,21.0,easy,control,Experiment 1 (no preview),2,visible,3.0,b,3.0,,0.0,a,b,a,a,1.0,5631.573000011907
172,21.0,easy,control,Experiment 1 (no preview),3,hidden,2.0,,,,1.0,ab,aa,aa,aa,1.0,14337.371999976169
172,21.0,easy,control,Experiment 1 (no preview),4,hidden,3.0,,,,1.0,aa,ba,ba,ba,1.0,6720.879999976169
172,21.0,easy,control,Experiment 1 (no preview),5,visible,0.0,b,2.0,,2.0,a,b,b,b,1.0,6901.1720000000205
172,21.0,easy,control,Experiment 1 (no preview),6,visible,3.0,b,3.0,,3.0,a,b,b,a,0.0,16630.997000011906
172,21.0,easy,control,Experiment 1 (no preview),7,hidden,0.0,,,,3.0,ab,aa,aa,aa,1.0,7420.890000011946
172,21.0,easy,control,Experiment 1 (no preview),8,hidden,0.0,,,,0.0,aa,ab,aa,aa,1.0,2334.228000000003
172,21.0,easy,control,Experiment 1 (no preview),9,visible,0.0,a,2.0,,2.0,a,b,b,b,1.0,1754.857000023825
172,21.0,easy,control,Experiment 1 (no preview),10,visible,0.0,a,2.0,,3.0,a,b,a,a,1.0,1567.335000011895
172,21.0,easy,control,Experiment 1 (no preview),11,visible,2.0,b,2.0,,2.0,a,b,b,b,1.0,1091.6669999761507
172,21.0,easy,control,Experiment 1 (no preview),12,hidden,3.0,,,,3.0,bb,ba,bb,ba,0.0,5413.146999999997
172,21.0,easy,control,Experiment 1 (no preview),13,hidden,3.0,,,,2.0,aa,bb,aa,bb,0.0,7910.343999976176
172,21.0,easy,control,Experiment 1 (no preview),14,hidden,3.0,,,,2.0,ab,ba,ab,ab,1.0,3826.4679999999935
172,21.0,easy,control,Experiment 1 (no preview),15,visible,2.0,a,3.0,,3.0,a,b,b,a,0.0,4726.317999988096
172,21.0,easy,control,Experiment 1 (no preview),16,visible,2.0,a,3.0,,1.0,a,b,a,a,1.0,7516.309000000008
172,21.0,easy,control,Experiment 1 (no preview),17,hidden,2.0,,,,2.0,aa,bb,bb,bb,1.0,2553.4340000238158
172,21.0,easy,control,Experiment 1 (no preview),18,hidden,2.0,,,,3.0,aa,ab,ab,aa,0.0,4317.378000023833
172,21.0,easy,control,Experiment 1 (no preview),19,visible,0.0,a,2.0,,0.0,a,b,a,a,1.0,8868.403000023856
172,21.0,easy,control,Experiment 1 (no preview),20,hidden,0.0,,,,2.0,aa,bb,bb,bb,1.0,2223.962000011932
174,21.0,easy,control,Experiment 1 (no preview),1,visible,0.0,a,2.0,,3.0,a,b,a,a,1.0,5270.738000000187
174,21.0,easy,control,Experiment 1 (no preview),2,visible,2.0,a,3.0,,1.0,a,b,a,a,1.0,3877.356000000204
174,21.0,easy,control,Experiment 1 (no preview),3,hidden,3.0,,,,3.0,bb,ba,bb,bb,1.0,6612.521000000183
174,21.0,easy,control,Experiment 1 (no preview),4,visible,3.0,b,3.0,,3.0,a,b,b,b,1.0,4438.461000000185
174,21.0,easy,control,Experiment 1 (no preview),5,hidden,0.0,,,,3.0,ab,aa,aa,ab,0.0,12846.28300000017
174,21.0,easy,control,Experiment 1 (no preview),6,visible,0.0,a,2.0,,2.0,a,b,b,b,1.0,12574.897999999812
174,21.0,easy,control,Experiment 1 (no preview),7,hidden,2.0,,,,3.0,aa,ab,ab,ab,1.0,15977.854999999807
174,21.0,easy,control,Experiment 1 (no preview),8,visible,0.0,a,2.0,,0.0,a,b,a,a,1.0,7661.0349999998
174,21.0,easy,control,Experiment 1 (no preview),9,hidden,0.0,,,,0.0,aa,ab,aa,ab,0.0,13172.994000000355
174,21.0,easy,control,Experiment 1 (no preview),10,hidden,2.0,,,,2.0,aa,bb,bb,bb,1.0,4824.79600000038
174,21.0,easy,control,Experiment 1 (no preview),11,visible,0.0,b,2.0,,2.0,a,b,b,b,1.0,1705.432000000379
174,21.0,easy,control,Experiment 1 (no preview),12,hidden,3.0,,,,1.0,aa,ba,ba,aa,0.0,2999.2569999998086
174,21.0,easy,control,Experiment 1 (no preview),13,hidden,0.0,,,,2.0,aa,bb,bb,bb,1.0,14530.047999999602
174,21.0,easy,control,Experiment 1 (no preview),14,hidden,3.0,,,,2.0,ab,ba,ab,ab,1.0,7407.605999999796
174,21.0,easy,control,Experiment 1 (no preview),15,visible,3.0,b,3.0,,0.0,a,b,a,a,1.0,6666.179000000353
174,21.0,easy,control,Experiment 1 (no preview),16,hidden,3.0,,,,2.0,aa,bb,aa,aa,1.0,8840.878000000026
174,21.0,easy,control,Experiment 1 (no preview),17,visible,2.0,a,3.0,,3.0,a,b,b,b,1.0,4505.375
174,21.0,easy,control,Experiment 1 (no preview),18,visible,2.0,b,2.0,,2.0,a,b,b,b,1.0,1527.1720000000205
174,21.0,easy,control,Experiment 1 (no preview),19,hidden,2.0,,,,1.0,ab,aa,aa,aa,1.0,4756.561999999976
174,21.0,easy,control,Experiment 1 (no preview),20,visible,0.0,b,2.0,,3.0,a,b,a,a,1.0,1799.6849999999977
176,22.0,hard,control,Experiment 1 (no preview),1,visible,2.0,a,2.0,,2.0,a,b,a,a,1.0,1604.373999997013
176,22.0,hard,control,Experiment 1 (no preview),2,hidden,1.0,,,,3.0,aa,ba,aa,ba,0.0,2489.596999997011
176,22.0,hard,control,Experiment 1 (no preview),3,hidden,1.0,,,,0.0,aa,bb,aa,bb,0.0,2771.6080000089423
176,22.0,hard,control,Experiment 1 (no preview),4,hidden,0.0,,,,0.0,aa,bb,aa,aa,1.0,971.681999997032
176,22.0,hard,control,Experiment 1 (no preview),5,hidden,1.0,,,,3.0,ab,ba,ab,ba,0.0,2935.7289999970235
176,22.0,hard,control,Experiment 1 (no preview),6,visible,3.0,a,2.0,,2.0,a,b,a,a,1.0,3050.599999997008
176,22.0,hard,control,Experiment 1 (no preview),7,hidden,3.0,,,,3.0,aa,ba,aa,ba,0.0,3208.829999999987
176,22.0,hard,control,Experiment 1 (no preview),8,hidden,0.0,,,,3.0,aa,ab,ab,aa,0.0,4209.361999999994
176,22.0,hard,control,Experiment 1 (no preview),9,hidden,2.0,,,,1.0,ba,ab,ab,ab,1.0,3229.3060000059486
176,22.0,hard,control,Experiment 1 (no preview),10,visible,0.0,a,3.0,,0.0,a,b,a,a,1.0,6820.135000000009
176,22.0,hard,control,Experiment 1 (no preview),11,hidden,1.0,,,,2.0,ab,ba,ba,ba,1.0,5184.1479999999865
176,22.0,hard,control,Experiment 1 (no preview),12,visible,2.0,a,2.0,,0.0,a,b,b,b,1.0,724.310000005964
176,22.0,hard,control,Experiment 1 (no preview),13,visible,0.0,b,3.0,,3.0,a,b,b,a,0.0,5625.325000000012
176,22.0,hard,control,Experiment 1 (no preview),14,hidden,2.0,,,,3.0,ba,ab,ba,ba,1.0,3669.547000000021
176,22.0,hard,control,Experiment 1 (no preview),15,hidden,3.0,,,,1.0,ba,bb,bb,bb,1.0,2866.570000000007
176,22.0,hard,control,Experiment 1 (no preview),16,visible,1.0,b,1.0,,3.0,a,b,b,b,1.0,4386.199000000022
176,22.0,hard,control,Experiment 1 (no preview),17,visible,1.0,a,1.0,,0.0,a,b,a,b,0.0,994.6910000029602
176,22.0,hard,control,Experiment 1 (no preview),18,visible,2.0,b,1.0,,0.0,a,b,a,a,1.0,574.8340000089374
176,22.0,hard,control,Experiment 1 (no preview),19,visible,3.0,b,2.0,,1.0,a,b,b,b,1.0,1244.078000005975
176,22.0,hard,control,Experiment 1 (no preview),20,visible,2.0,a,2.0,,1.0,a,b,b,b,1.0,758.1160000030068
229,21.0,easy,control,Experiment 1 (no preview),1,visible,3.0,b,3.0,,0.0,a,b,a,a,1.0,1417.8850000000093
229,21.0,easy,control,Experiment 1 (no preview),2,visible,0.0,a,2.0,,2.0,a,b,b,b,1.0,1752.949000017892
229,21.0,easy,control,Experiment 1 (no preview),3,hidden,2.0,,,,3.0,aa,ab,ab,aa,0.0,13720.443999999989
229,21.0,easy,control,Experiment 1 (no preview),4,hidden,3.0,,,,2.0,ab,ba,ab,ab,1.0,12778.277000005968
229,21.0,easy,control,Experiment 1 (no preview),5,visible,0.0,b,2.0,,2.0,a,b,b,b,1.0,2950.056000011915
229,21.0,easy,control,Experiment 1 (no preview),6,hidden,2.0,,,,1.0,ab,aa,aa,aa,1.0,4013.847999999998
229,21.0,easy,control,Experiment 1 (no preview),7,visible,2.0,a,3.0,,1.0,a,b,a,a,1.0,2259.749999994063
229,21.0,easy,control,Experiment 1 (no preview),8,hidden,3.0,,,,1.0,aa,ba,ba,ba,1.0,6708.94800000597
229,21.0,easy,control,Experiment 1 (no preview),9,hidden,3.0,,,,3.0,bb,ba,bb,bb,1.0,2470.8640000000014
229,21.0,easy,control,Experiment 1 (no preview),10,hidden,3.0,,,,2.0,aa,bb,aa,aa,1.0,6394.07000001194
229,21.0,easy,control,Experiment 1 (no preview),11,visible,3.0,b,3.0,,3.0,a,b,b,a,0.0,1973.8960000119405
229,21.0,easy,control,Experiment 1 (no preview),12,visible,0.0,b,2.0,,3.0,a,b,a,a,1.0,873.3159999999916
229,21.0,easy,control,Experiment 1 (no preview),13,visible,2.0,b,2.0,,2.0,a,b,b,b,1.0,542.5069999999832
229,21.0,easy,control,Experiment 1 (no preview),14,hidden,0.0,,,,2.0,aa,bb,bb,aa,0.0,562.268999994034
229,21.0,easy,control,Experiment 1 (no preview),15,hidden,2.0,,,,2.0,aa,bb,bb,bb,1.0,937.699000017892
229,21.0,easy,control,Experiment 1 (no preview),16,visible,0.0,a,2.0,,0.0,a,b,a,a,1.0,475.946000017866
229,21.0,easy,control,Experiment 1 (no preview),17,visible,2.0,a,3.0,,3.0,a,b,b,a,0.0,1413.0059999940568
229,21.0,easy,control,Experiment 1 (no preview),18,visible,0.0,a,2.0,,3.0,a,b,a,a,1.0,3835.087000011932
229,21.0,easy,control,Experiment 1 (no preview),19,hidden,0.0,,,,0.0,aa,ab,aa,ab,0.0,2545.481000005966
229,21.0,easy,control,Experiment 1 (no preview),20,hidden,0.0,,,,3.0,ab,aa,aa,aa,1.0,1162.275000017893
230,21.0,easy,control,Experiment 1 (no preview),1,hidden,0.0,,,,3.0,ab,aa,aa,ab,0.0,10225.615000023856
230,21.0,easy,control,Experiment 1 (no preview),2,hidden,3.0,,,,2.0,aa,bb,aa,aa,1.0,5228.32699999999
230,21.0,easy,control,Experiment 1 (no preview),3,visible,0.0,b,2.0,,2.0,a,b,b,a,0.0,4055.7279999523303
230,21.0,easy,control,Experiment 1 (no preview),4,visible,0.0,a,2.0,,0.0,a,b,a,b,0.0,2357.356000023836
230,21.0,easy,control,Experiment 1 (no preview),5,visible,2.0,a,3.0,,3.0,a,b,b,b,1.0,3186.895999976143
230,21.0,easy,control,Experiment 1 (no preview),6,visible,3.0,b,3.0,,3.0,a,b,b,b,1.0,1353.3219999999856
230,21.0,easy,control,Experiment 1 (no preview),7,hidden,3.0,,,,2.0,ab,ba,ab,ab,1.0,3047.1140000238665
230,21.0,easy,control,Experiment 1 (no preview),8,hidden,0.0,,,,0.0,aa,ab,aa,aa,1.0,4929.575000000012
230,21.0,easy,control,Experiment 1 (no preview),9,visible,2.0,a,3.0,,1.0,a,b,a,a,1.0,3247.667999952333
230,21.0,easy,control,Experiment 1 (no preview),10,hidden,2.0,,,,2.0,aa,bb,bb,bb,1.0,1676.295999952301
230,21.0,easy,control,Experiment 1 (no preview),11,visible,3.0,b,3.0,,0.0,a,b,a,b,0.0,1642.4479999523028
230,21.0,easy,control,Experiment 1 (no preview),12,visible,0.0,a,2.0,,2.0,a,b,b,a,0.0,1700.969999999972
230,21.0,easy,control,Experiment 1 (no preview),13,visible,2.0,b,2.0,,2.0,a,b,b,b,1.0,1414.229000023799
230,21.0,easy,control,Experiment 1 (no preview),14,visible,0.0,a,2.0,,3.0,a,b,a,a,1.0,1046.1310000000522
230,21.0,easy,control,Experiment 1 (no preview),15,hidden,2.0,,,,1.0,ab,aa,aa,aa,1.0,1531.1569999761414
230,21.0,easy,control,Experiment 1 (no preview),16,hidden,3.0,,,,1.0,aa,ba,ba,aa,0.0,1490.042999952333
230,21.0,easy,control,Experiment 1 (no preview),17,visible,0.0,b,2.0,,3.0,a,b,a,b,0.0,2107.4400000238093
230,21.0,easy,control,Experiment 1 (no preview),18,hidden,0.0,,,,2.0,aa,bb,bb,bb,1.0,4926.122000047704
230,21.0,easy,control,Experiment 1 (no preview),19,hidden,3.0,,,,3.0,bb,ba,bb,bb,1.0,2015.329999952344
230,21.0,easy,control,Experiment 1 (no preview),20,hidden,2.0,,,,3.0,aa,ab,ab,ab,1.0,2056.2420000476995
241,22.0,hard,control,Experiment 1 (no preview),1,visible,3.0,a,2.0,,2.0,a,b,a,a,1.0,2838.598000000551
241,22.0,hard,control,Experiment 1 (no preview),2,visible,0.0,a,3.0,,0.0,a,b,a,a,1.0,5071.777999999991
241,22.0,hard,control,Experiment 1 (no preview),3,visible,2.0,a,2.0,,1.0,a,b,b,b,1.0,805.0519999997923
241,22.0,hard,control,Experiment 1 (no preview),4,hidden,1.0,,,,0.0,aa,bb,aa,aa,1.0,7655.270000000019
241,22.0,hard,control,Experiment 1 (no preview),5,hidden,2.0,,,,3.0,ba,ab,ba,ab,0.0,3188.4710000005434
241,22.0,hard,control,Experiment 1 (no preview),6,visible,0.0,b,3.0,,3.0,a,b,b,b,1.0,3005.539000000397
241,22.0,hard,control,Experiment 1 (no preview),7,hidden,3.0,,,,3.0,aa,ba,aa,aa,1.0,4388.703000000387
241,22.0,hard,control,Experiment 1 (no preview),8,visible,3.0,b,2.0,,1.0,a,b,b,a,0.0,2688.432000000379
241,22.0,hard,control,Experiment 1 (no preview),9,visible,2.0,a,2.0,,2.0,a,b,a,a,1.0,755.3140000001877
241,22.0,hard,control,Experiment 1 (no preview),10,hidden,1.0,,,,2.0,ab,ba,ba,ab,0.0,3438.593000000401
241,22.0,hard,control,Experiment 1 (no preview),11,hidden,0.0,,,,3.0,aa,ab,ab,ab,1.0,4605.571000000578
241,22.0,hard,control,Experiment 1 (no preview),12,visible,1.0,a,1.0,,0.0,a,b,a,b,0.0,1022.158000000578
241,22.0,hard,control,Experiment 1 (no preview),13,hidden,1.0,,,,3.0,ab,ba,ab,ab,1.0,2821.780000000377
241,22.0,hard,control,Experiment 1 (no preview),14,visible,2.0,b,1.0,,0.0,a,b,a,b,0.0,3305.400000000547
241,22.0,hard,control,Experiment 1 (no preview),15,hidden,2.0,,,,1.0,ba,ab,ab,ab,1.0,4771.753000000375
241,22.0,hard,control,Experiment 1 (no preview),16,hidden,0.0,,,,0.0,aa,bb,aa,aa,1.0,2205.5510000002105
241,22.0,hard,control,Experiment 1 (no preview),17,hidden,3.0,,,,1.0,ba,bb,bb,ba,0.0,5322.060000000172
241,22.0,hard,control,Experiment 1 (no preview),18,hidden,1.0,,,,3.0,aa,ba,aa,aa,1.0,4638.429000000586
241,22.0,hard,control,Experiment 1 (no preview),19,visible,1.0,b,1.0,,3.0,a,b,b,b,1.0,2588.855000000214
241,22.0,hard,control,Experiment 1 (no preview),20,visible,2.0,a,2.0,,0.0,a,b,b,a,0.0,1438.544000000169
242,22.0,hard,control,Experiment 1 (no preview),1,visible,3.0,b,2.0,,1.0,a,b,b,b,1.0,4644.16999990464
242,22.0,hard,control,Experiment 1 (no preview),2,hidden,3.0,,,,1.0,ba,bb,bb,bb,1.0,5883.668999976129
242,22.0,hard,control,Experiment 1 (no preview),3,hidden,0.0,,,,3.0,aa,ab,ab,ab,1.0,4620.967999904649
242,22.0,hard,control,Experiment 1 (no preview),4,visible,1.0,a,1.0,,0.0,a,b,a,b,0.0,3828.5269999046577
242,22.0,hard,control,Experiment 1 (no preview),5,visible,0.0,b,3.0,,3.0,a,b,b,b,1.0,1079.7299999046372
242,22.0,hard,control,Experiment 1 (no preview),6,hidden,2.0,,,,3.0,ba,ab,ba,ab,0.0,1529.9069999284693
242,22.0,hard,control,Experiment 1 (no preview),7,hidden,0.0,,,,0.0,aa,bb,aa,bb,0.0,1115.0689999284805
242,22.0,hard,control,Experiment 1 (no preview),8,visible,2.0,a,2.0,,1.0,a,b,b,b,1.0,2220.658999904641
242,22.0,hard,control,Experiment 1 (no preview),9,visible,2.0,a,2.0,,0.0,a,b,b,b,1.0,1016.6510000000126
242,22.0,hard,control,Experiment 1 (no preview),10,visible,2.0,b,1.0,,0.0,a,b,a,b,0.0,810.6969999046414
242,22.0,hard,control,Experiment 1 (no preview),11,hidden,1.0,,,,3.0,aa,ba,aa,ba,0.0,4969.851999904611
242,22.0,hard,control,Experiment 1 (no preview),12,visible,3.0,a,2.0,,2.0,a,b,a,a,1.0,1977.0909999523428
242,22.0,hard,control,Experiment 1 (no preview),13,visible,1.0,b,1.0,,3.0,a,b,b,a,0.0,2631.0589999761432
242,22.0,hard,control,Experiment 1 (no preview),14,hidden,1.0,,,,3.0,ab,ba,ab,ab,1.0,6324.249999952328
242,22.0,hard,control,Experiment 1 (no preview),15,hidden,1.0,,,,2.0,ab,ba,ba,ba,1.0,1447.3519999761484
242,22.0,hard,control,Experiment 1 (no preview),16,hidden,1.0,,,,0.0,aa,bb,aa,bb,0.0,2673.158999976178
242,22.0,hard,control,Experiment 1 (no preview),17,visible,0.0,a,3.0,,0.0,a,b,a,b,0.0,2904.5139999761595
242,22.0,hard,control,Experiment 1 (no preview),18,hidden,3.0,,,,3.0,aa,ba,aa,ba,0.0,5031.380999952322
242,22.0,hard,control,Experiment 1 (no preview),19,visible,2.0,a,2.0,,2.0,a,b,a,a,1.0,1456.8679999523447
242,22.0,hard,control,Experiment 1 (no preview),20,hidden,2.0,,,,1.0,ba,ab,ab,ab,1.0,3677.843999952311
243,22.0,hard,control,Experiment 1 (no preview),1,hidden,0.0,,,,3.0,aa,ab,ab,aa,0.0,10954.262999999975
243,22.0,hard,control,Experiment 1 (no preview),2,visible,1.0,b,1.0,,3.0,a,b,b,b,1.0,3164.2429999999003
243,22.0,hard,control,Experiment 1 (no preview),3,hidden,3.0,,,,3.0,aa,ba,aa,aa,1.0,10044.432999999904
243,22.0,hard,control,Experiment 1 (no preview),4,visible,2.0,a,2.0,,1.0,a,b,b,b,1.0,5549.065999999992
243,22.0,hard,control,Experiment 1 (no preview),5,hidden,0.0,,,,0.0,aa,bb,aa,bb,0.0,6820.686999999918
243,22.0,hard,control,Experiment 1 (no preview),6,visible,0.0,b,3.0,,3.0,a,b,b,b,1.0,3784.063000000024
243,22.0,hard,control,Experiment 1 (no preview),7,visible,2.0,a,2.0,,0.0,a,b,b,b,1.0,3840.818000000029
243,22.0,hard,control,Experiment 1 (no preview),8,hidden,1.0,,,,3.0,aa,ba,aa,ba,0.0,5227.128000000026
243,22.0,hard,control,Experiment 1 (no preview),9,hidden,2.0,,,,3.0,ba,ab,ba,ba,1.0,3052.661000000022
243,22.0,hard,control,Experiment 1 (no preview),10,visible,3.0,a,2.0,,2.0,a,b,a,a,1.0,1883.7810000000757
243,22.0,hard,control,Experiment 1 (no preview),11,visible,3.0,b,2.0,,1.0,a,b,b,b,1.0,3524.5710000000545
243,22.0,hard,control,Experiment 1 (no preview),12,visible,1.0,a,1.0,,0.0,a,b,a,b,0.0,1452.8510000000242
243,22.0,hard,control,Experiment 1 (no preview),13,hidden,3.0,,,,1.0,ba,bb,bb,bb,1.0,2257.360000000044
243,22.0,hard,control,Experiment 1 (no preview),14,visible,2.0,a,2.0,,2.0,a,b,a,a,1.0,623.1199999999953
243,22.0,hard,control,Experiment 1 (no preview),15,visible,2.0,b,1.0,,0.0,a,b,a,b,0.0,444.8879999998608
243,22.0,hard,control,Experiment 1 (no preview),16,visible,0.0,a,3.0,,0.0,a,b,a,b,0.0,2421.3880000000354
243,22.0,hard,control,Experiment 1 (no preview),17,hidden,1.0,,,,0.0,aa,bb,aa,bb,0.0,3440.112000000023
243,22.0,hard,control,Experiment 1 (no preview),18,hidden,1.0,,,,3.0,ab,ba,ab,ba,0.0,3185.066999999981
243,22.0,hard,control,Experiment 1 (no preview),19,hidden,1.0,,,,2.0,ab,ba,ba,ab,0.0,8698.76199999993
243,22.0,hard,control,Experiment 1 (no preview),20,hidden,2.0,,,,1.0,ba,ab,ab,ab,1.0,4388.96599999984
244,22.0,hard,control,Experiment 1 (no preview),1,hidden,1.0,,,,2.0,ab,ba,ba,ab,0.0,6330.464999998512
244,22.0,hard,control,Experiment 1 (no preview),2,visible,0.0,a,3.0,,0.0,a,b,a,a,1.0,2215.102999999246
244,22.0,hard,control,Experiment 1 (no preview),3,visible,1.0,b,1.0,,3.0,a,b,b,a,0.0,2083.325000000012
244,22.0,hard,control,Experiment 1 (no preview),4,hidden,2.0,,,,3.0,ba,ab,ba,ba,1.0,4755.4819999992615
244,22.0,hard,control,Experiment 1 (no preview),5,visible,1.0,a,1.0,,0.0,a,b,a,b,0.0,4409.379999997793
244,22.0,hard,control,Experiment 1 (no preview),6,hidden,0.0,,,,3.0,aa,ab,ab,aa,0.0,5210.537000000768
244,22.0,hard,control,Experiment 1 (no preview),7,visible,2.0,a,2.0,,0.0,a,b,b,b,1.0,3342.675999999279
244,22.0,hard,control,Experiment 1 (no preview),8,hidden,3.0,,,,3.0,aa,ba,aa,aa,1.0,5704.833999999275
244,22.0,hard,control,Experiment 1 (no preview),9,visible,0.0,b,3.0,,3.0,a,b,b,a,0.0,3202.5200000000186
244,22.0,hard,control,Experiment 1 (no preview),10,hidden,1.0,,,,0.0,aa,bb,aa,bb,0.0,4255.583999997762
244,22.0,hard,control,Experiment 1 (no preview),11,visible,2.0,b,1.0,,0.0,a,b,a,b,0.0,5966.2849999977625
244,22.0,hard,control,Experiment 1 (no preview),12,hidden,3.0,,,,1.0,ba,bb,bb,bb,1.0,6785.625999998534
244,22.0,hard,control,Experiment 1 (no preview),13,visible,2.0,a,2.0,,1.0,a,b,b,b,1.0,771.3680000007735
244,22.0,hard,control,Experiment 1 (no preview),14,visible,3.0,a,2.0,,2.0,a,b,a,a,1.0,5685.837999997777
244,22.0,hard,control,Experiment 1 (no preview),15,hidden,0.0,,,,0.0,aa,bb,aa,bb,0.0,2993.579999997746
244,22.0,hard,control,Experiment 1 (no preview),16,hidden,1.0,,,,3.0,aa,ba,aa,ba,0.0,4553.037000000011
244,22.0,hard,control,Experiment 1 (no preview),17,visible,2.0,a,2.0,,2.0,a,b,a,a,1.0,896.8349999985076
244,22.0,hard,control,Experiment 1 (no preview),18,hidden,2.0,,,,1.0,ba,ab,ab,ab,1.0,11678.461999998486
244,22.0,hard,control,Experiment 1 (no preview),19,visible,3.0,b,2.0,,1.0,a,b,b,b,1.0,1416.3090000000084
244,22.0,hard,control,Experiment 1 (no preview),20,hidden,1.0,,,,3.0,ab,ba,ab,ab,1.0,9700.265000000014
245,21.0,easy,control,Experiment 1 (no preview),1,visible,0.0,b,2.0,,3.0,a,b,a,a,1.0,2767.3720000003814
245,21.0,easy,control,Experiment 1 (no preview),2,visible,2.0,a,3.0,,3.0,a,b,b,a,0.0,5150.4039999988745
245,21.0,easy,control,Experiment 1 (no preview),3,hidden,3.0,,,,2.0,aa,bb,aa,bb,0.0,4337.9689999996335
245,21.0,easy,control,Experiment 1 (no preview),4,visible,0.0,a,2.0,,2.0,a,b,b,b,1.0,1034.9829999988724
245,21.0,easy,control,Experiment 1 (no preview),5,hidden,2.0,,,,3.0,aa,ab,ab,aa,0.0,3375.368999998871
245,21.0,easy,control,Experiment 1 (no preview),6,visible,0.0,a,2.0,,0.0,a,b,a,a,1.0,2756.911000000371
245,21.0,easy,control,Experiment 1 (no preview),7,hidden,2.0,,,,2.0,aa,bb,bb,bb,1.0,2669.481000000378
245,21.0,easy,control,Experiment 1 (no preview),8,hidden,3.0,,,,3.0,bb,ba,bb,ba,0.0,3293.659000000014
245,21.0,easy,control,Experiment 1 (no preview),9,visible,0.0,a,2.0,,3.0,a,b,a,a,1.0,5591.564999998896
245,21.0,easy,control,Experiment 1 (no preview),10,visible,3.0,b,3.0,,0.0,a,b,a,a,1.0,1922.5089999996417
245,21.0,easy,control,Experiment 1 (no preview),11,hidden,3.0,,,,2.0,ab,ba,ab,ab,1.0,7809.892999999633
245,21.0,easy,control,Experiment 1 (no preview),12,hidden,0.0,,,,0.0,aa,ab,aa,aa,1.0,2945.919999999227
245,21.0,easy,control,Experiment 1 (no preview),13,visible,2.0,b,2.0,,2.0,a,b,b,b,1.0,1979.7120000003488
245,21.0,easy,control,Experiment 1 (no preview),14,hidden,3.0,,,,1.0,aa,ba,ba,aa,0.0,1829.8509999992675
245,21.0,easy,control,Experiment 1 (no preview),15,hidden,2.0,,,,1.0,ab,aa,aa,aa,1.0,2488.0649999992456
245,21.0,easy,control,Experiment 1 (no preview),16,hidden,0.0,,,,3.0,ab,aa,aa,aa,1.0,3439.0629999996163
245,21.0,easy,control,Experiment 1 (no preview),17,visible,3.0,b,3.0,,3.0,a,b,b,a,0.0,2148.1410000003525
245,21.0,easy,control,Experiment 1 (no preview),18,hidden,0.0,,,,2.0,aa,bb,bb,bb,1.0,3206.347999998892
245,21.0,easy,control,Experiment 1 (no preview),19,visible,0.0,b,2.0,,2.0,a,b,b,b,1.0,1117.771999999648
245,21.0,easy,control,Experiment 1 (no preview),20,visible,2.0,a,3.0,,1.0,a,b,a,a,1.0,692.4240000003483
246,21.0,easy,control,Experiment 1 (no preview),1,hidden,3.0,,,,1.0,aa,ba,ba,aa,0.0,16692.53300002386
246,21.0,easy,control,Experiment 1 (no preview),2,visible,2.0,a,3.0,,1.0,a,b,a,b,0.0,2774.6659999522963
246,21.0,easy,control,Experiment 1 (no preview),3,hidden,0.0,,,,3.0,ab,aa,aa,ab,0.0,2851.639999976149
246,21.0,easy,control,Experiment 1 (no preview),4,visible,3.0,b,3.0,,3.0,a,b,b,b,1.0,1295.5639999284758
246,21.0,easy,control,Experiment 1 (no preview),5,hidden,3.0,,,,3.0,bb,ba,bb,bb,1.0,1319.9009999523405
246,21.0,easy,control,Experiment 1 (no preview),6,visible,0.0,a,2.0,,3.0,a,b,a,b,0.0,1774.6500000000233
246,21.0,easy,control,Experiment 1 (no preview),7,hidden,3.0,,,,2.0,aa,bb,aa,bb,0.0,3147.5439999999944
246,21.0,easy,control,Experiment 1 (no preview),8,visible,0.0,b,2.0,,2.0,a,b,b,b,1.0,1675.32300002384
246,21.0,easy,control,Experiment 1 (no preview),9,visible,3.0,b,3.0,,0.0,a,b,a,a,1.0,1200.4189999523223
246,21.0,easy,control,Experiment 1 (no preview),10,visible,2.0,b,2.0,,2.0,a,b,b,b,1.0,983.5719999284483
246,21.0,easy,control,Experiment 1 (no preview),11,hidden,0.0,,,,0.0,aa,ab,aa,aa,1.0,1620.681999976165
246,21.0,easy,control,Experiment 1 (no preview),12,visible,0.0,a,2.0,,2.0,a,b,b,a,0.0,3645.922999928473
246,21.0,easy,control,Experiment 1 (no preview),13,hidden,2.0,,,,2.0,aa,bb,bb,bb,1.0,1556.0130000238423
246,21.0,easy,control,Experiment 1 (no preview),14,hidden,3.0,,,,2.0,ab,ba,ab,ab,1.0,5738.88899997616
246,21.0,easy,control,Experiment 1 (no preview),15,hidden,2.0,,,,1.0,ab,aa,aa,aa,1.0,958.4679999761864
246,21.0,easy,control,Experiment 1 (no preview),16,visible,0.0,b,2.0,,3.0,a,b,a,b,0.0,2283.844999928493
246,21.0,easy,control,Experiment 1 (no preview),17,hidden,2.0,,,,3.0,aa,ab,ab,ab,1.0,2189.480999976164
246,21.0,easy,control,Experiment 1 (no preview),18,hidden,0.0,,,,2.0,aa,bb,bb,bb,1.0,3196.6999999761465
246,21.0,easy,control,Experiment 1 (no preview),19,visible,0.0,a,2.0,,0.0,a,b,a,a,1.0,1708.9340000000084
246,21.0,easy,control,Experiment 1 (no preview),20,visible,2.0,a,3.0,,3.0,a,b,b,b,1.0,5163.295999952301
247,21.0,easy,control,Experiment 1 (no preview),1,hidden,3.0,,,,2.0,ab,ba,ab,ab,1.0,12185.763000000035
247,21.0,easy,control,Experiment 1 (no preview),2,hidden,2.0,,,,3.0,aa,ab,ab,aa,0.0,9409.702000005986
247,21.0,easy,control,Experiment 1 (no preview),3,hidden,3.0,,,,1.0,aa,ba,ba,aa,0.0,9910.439000002923
247,21.0,easy,control,Experiment 1 (no preview),4,hidden,3.0,,,,2.0,aa,bb,aa,bb,0.0,5136.419000003021
247,21.0,easy,control,Experiment 1 (no preview),5,hidden,2.0,,,,1.0,ab,aa,aa,aa,1.0,1362.6340000060154
247,21.0,easy,control,Experiment 1 (no preview),6,hidden,2.0,,,,2.0,aa,bb,bb,bb,1.0,2184.4159999999683
247,21.0,easy,control,Experiment 1 (no preview),7,hidden,0.0,,,,2.0,aa,bb,bb,aa,0.0,6542.233000011882
247,21.0,easy,control,Experiment 1 (no preview),8,visible,2.0,a,3.0,,1.0,a,b,a,a,1.0,3200.7900000000373
247,21.0,easy,control,Experiment 1 (no preview),9,visible,3.0,b,3.0,,3.0,a,b,b,b,1.0,4914.709000002942
247,21.0,easy,control,Experiment 1 (no preview),10,visible,2.0,b,2.0,,2.0,a,b,b,b,1.0,476.2770000030287
247,21.0,easy,control,Experiment 1 (no preview),11,visible,3.0,b,3.0,,0.0,a,b,a,a,1.0,16960.48700000299
247,21.0,easy,control,Experiment 1 (no preview),12,hidden,3.0,,,,3.0,bb,ba,bb,ba,0.0,2087.2110000000102
247,21.0,easy,control,Experiment 1 (no preview),13,visible,0.0,b,2.0,,3.0,a,b,a,a,1.0,2224.210000002989
247,21.0,easy,control,Experiment 1 (no preview),14,hidden,0.0,,,,3.0,ab,aa,aa,aa,1.0,2719.424000008963
247,21.0,easy,control,Experiment 1 (no preview),15,visible,0.0,a,2.0,,2.0,a,b,b,a,0.0,2869.402000000002
247,21.0,easy,control,Experiment 1 (no preview),16,visible,2.0,a,3.0,,3.0,a,b,b,a,0.0,637.5000000030268
247,21.0,easy,control,Experiment 1 (no preview),17,visible,0.0,b,2.0,,2.0,a,b,b,b,1.0,1367.1520000089658
247,21.0,easy,control,Experiment 1 (no preview),18,visible,0.0,a,2.0,,0.0,a,b,a,b,0.0,3042.204999999958
247,21.0,easy,control,Experiment 1 (no preview),19,hidden,0.0,,,,0.0,aa,ab,aa,aa,1.0,4217.290000002948
247,21.0,easy,control,Experiment 1 (no preview),20,visible,0.0,a,2.0,,3.0,a,b,a,a,1.0,4126.748000002932
269,22.0,hard,control,Experiment 1 (no preview),1,hidden,2.0,,,,3.0,ba,ab,ba,ba,1.0,6391.254000047687
269,22.0,hard,control,Experiment 1 (no preview),2,hidden,0.0,,,,0.0,aa,bb,aa,bb,0.0,15757.10700004769
269,22.0,hard,control,Experiment 1 (no preview),3,visible,0.0,b,3.0,,3.0,a,b,b,b,1.0,8924.407000047679
269,22.0,hard,control,Experiment 1 (no preview),4,hidden,2.0,,,,1.0,ba,ab,ab,ba,0.0,7835.792000000016
269,22.0,hard,control,Experiment 1 (no preview),5,visible,2.0,b,1.0,,0.0,a,b,a,b,0.0,6187.405999999959
269,22.0,hard,control,Experiment 1 (no preview),6,hidden,1.0,,,,3.0,ab,ba,ab,ba,0.0,5232.538000143017
269,22.0,hard,control,Experiment 1 (no preview),7,visible,0.0,a,3.0,,0.0,a,b,a,a,1.0,9250.394000190776
269,22.0,hard,control,Experiment 1 (no preview),8,visible,1.0,a,1.0,,0.0,a,b,a,b,0.0,2877.204000047641
269,22.0,hard,control,Experiment 1 (no preview),9,visible,2.0,a,2.0,,2.0,a,b,a,a,1.0,1865.620000190684
269,22.0,hard,control,Experiment 1 (no preview),10,visible,2.0,a,2.0,,1.0,a,b,b,b,1.0,1214.2430000476306
269,22.0,hard,control,Experiment 1 (no preview),11,visible,3.0,b,2.0,,1.0,a,b,b,a,0.0,2093.7690000477014
269,22.0,hard,control,Experiment 1 (no preview),12,hidden,0.0,,,,3.0,aa,ab,ab,ab,1.0,4566.283000143012
269,22.0,hard,control,Experiment 1 (no preview),13,visible,2.0,a,2.0,,0.0,a,b,b,b,1.0,1369.6940000476316
269,22.0,hard,control,Experiment 1 (no preview),14,hidden,3.0,,,,1.0,ba,bb,bb,ba,0.0,3837.2850000953767
269,22.0,hard,control,Experiment 1 (no preview),15,hidden,3.0,,,,3.0,aa,ba,aa,aa,1.0,5281.263999999967
269,22.0,hard,control,Experiment 1 (no preview),16,hidden,1.0,,,,2.0,ab,ba,ba,ab,0.0,5134.123000143096
269,22.0,hard,control,Experiment 1 (no preview),17,visible,3.0,a,2.0,,2.0,a,b,a,b,0.0,3376.713000095333
269,22.0,hard,control,Experiment 1 (no preview),18,visible,1.0,b,1.0,,3.0,a,b,b,a,0.0,5485.018000190728
269,22.0,hard,control,Experiment 1 (no preview),19,hidden,1.0,,,,3.0,aa,ba,aa,ba,0.0,5909.244999999995
269,22.0,hard,control,Experiment 1 (no preview),20,hidden,1.0,,,,0.0,aa,bb,aa,bb,0.0,3591.314000000013
270,22.0,hard,control,Experiment 1 (no preview),1,hidden,0.0,,,,3.0,aa,ab,ab,ab,1.0,3622.260999952327
270,22.0,hard,control,Experiment 1 (no preview),2,hidden,3.0,,,,1.0,ba,bb,bb,bb,1.0,1988.5980000238344
270,22.0,hard,control,Experiment 1 (no preview),3,hidden,1.0,,,,2.0,ab,ba,ba,ba,1.0,4222.251999928471
270,22.0,hard,control,Experiment 1 (no preview),4,hidden,1.0,,,,0.0,aa,bb,aa,aa,1.0,3321.926999928488
270,22.0,hard,control,Experiment 1 (no preview),5,hidden,2.0,,,,3.0,ba,ab,ba,ab,0.0,4972.267000023858
270,22.0,hard,control,Experiment 1 (no preview),6,visible,2.0,b,1.0,,0.0,a,b,a,b,0.0,4305.527000000002
270,22.0,hard,control,Experiment 1 (no preview),7,visible,2.0,a,2.0,,0.0,a,b,b,b,1.0,3521.9349999999977
270,22.0,hard,control,Experiment 1 (no preview),8,visible,0.0,b,3.0,,3.0,a,b,b,b,1.0,1822.1829999522888
270,22.0,hard,control,Experiment 1 (no preview),9,hidden,2.0,,,,1.0,ba,ab,ab,ab,1.0,7838.77199992846
270,22.0,hard,control,Experiment 1 (no preview),10,hidden,0.0,,,,0.0,aa,bb,aa,bb,0.0,2955.118999976141
270,22.0,hard,control,Experiment 1 (no preview),11,visible,2.0,a,2.0,,1.0,a,b,b,b,1.0,3038.911000023829
270,22.0,hard,control,Experiment 1 (no preview),12,visible,1.0,b,1.0,,3.0,a,b,b,a,0.0,1971.7699999761533
270,22.0,hard,control,Experiment 1 (no preview),13,hidden,1.0,,,,3.0,ab,ba,ab,ab,1.0,13605.755999999994
270,22.0,hard,control,Experiment 1 (no preview),14,hidden,3.0,,,,3.0,aa,ba,aa,aa,1.0,5088.715999952343
270,22.0,hard,control,Experiment 1 (no preview),15,visible,0.0,a,3.0,,0.0,a,b,a,b,0.0,5088.53899999999
270,22.0,hard,control,Experiment 1 (no preview),16,visible,1.0,a,1.0,,0.0,a,b,a,b,0.0,9005.882999999973
270,22.0,hard,control,Experiment 1 (no preview),17,hidden,1.0,,,,3.0,aa,ba,aa,ba,0.0,7755.287999976135
270,22.0,hard,control,Experiment 1 (no preview),18,visible,2.0,a,2.0,,2.0,a,b,a,a,1.0,3121.771999952325
270,22.0,hard,control,Experiment 1 (no preview),19,visible,3.0,b,2.0,,1.0,a,b,b,b,1.0,3122.103999928455
270,22.0,hard,control,Experiment 1 (no preview),20,visible,3.0,a,2.0,,2.0,a,b,a,a,1.0,571.8959999284707
271,22.0,hard,control,Experiment 1 (no preview),1,hidden,2.0,,,,3.0,ba,ab,ba,ba,1.0,4347.812999976159
271,22.0,hard,control,Experiment 1 (no preview),2,visible,2.0,a,2.0,,2.0,a,b,a,b,0.0,1438.442999904626
271,22.0,hard,control,Experiment 1 (no preview),3,hidden,1.0,,,,3.0,aa,ba,aa,ba,0.0,3108.078999952326
271,22.0,hard,control,Experiment 1 (no preview),4,visible,3.0,b,2.0,,1.0,a,b,b,a,0.0,3306.649999999994
271,22.0,hard,control,Experiment 1 (no preview),5,visible,0.0,b,3.0,,3.0,a,b,b,b,1.0,2136.5989999761514
271,22.0,hard,control,Experiment 1 (no preview),6,hidden,3.0,,,,3.0,aa,ba,aa,aa,1.0,2368.012999928469
271,22.0,hard,control,Experiment 1 (no preview),7,visible,1.0,b,1.0,,3.0,a,b,b,a,0.0,2687.300999928498
271,22.0,hard,control,Experiment 1 (no preview),8,hidden,0.0,,,,0.0,aa,bb,aa,bb,0.0,1698.5159999523312
271,22.0,hard,control,Experiment 1 (no preview),9,hidden,1.0,,,,3.0,ab,ba,ab,ab,1.0,9820.347999976131
271,22.0,hard,control,Experiment 1 (no preview),10,hidden,1.0,,,,2.0,ab,ba,ba,ba,1.0,1364.094999928493
271,22.0,hard,control,Experiment 1 (no preview),11,visible,2.0,a,2.0,,1.0,a,b,b,b,1.0,4368.517999928503
271,22.0,hard,control,Experiment 1 (no preview),12,visible,1.0,a,1.0,,0.0,a,b,a,b,0.0,1251.9870000000228
271,22.0,hard,control,Experiment 1 (no preview),13,visible,0.0,a,3.0,,0.0,a,b,a,a,1.0,3570.4869999522925
271,22.0,hard,control,Experiment 1 (no preview),14,visible,2.0,b,1.0,,0.0,a,b,a,b,0.0,3681.103999904648
271,22.0,hard,control,Experiment 1 (no preview),15,hidden,3.0,,,,1.0,ba,bb,bb,bb,1.0,4538.212999928452
271,22.0,hard,control,Experiment 1 (no preview),16,hidden,2.0,,,,1.0,ba,ab,ab,ab,1.0,2858.369999999996
271,22.0,hard,control,Experiment 1 (no preview),17,visible,3.0,a,2.0,,2.0,a,b,a,a,1.0,3323.5779999999795
271,22.0,hard,control,Experiment 1 (no preview),18,visible,2.0,a,2.0,,0.0,a,b,b,b,1.0,2244.796999976156
271,22.0,hard,control,Experiment 1 (no preview),19,hidden,0.0,,,,3.0,aa,ab,ab,ab,1.0,5804.8829999999725
271,22.0,hard,control,Experiment 1 (no preview),20,hidden,1.0,,,,0.0,aa,bb,aa,aa,1.0,2264.8400000000256
272,22.0,hard,control,Experiment 1 (no preview),1,hidden,0.0,,,,0.0,aa,bb,aa,bb,0.0,10839.181999928493
272,22.0,hard,control,Experiment 1 (no preview),2,hidden,1.0,,,,3.0,aa,ba,aa,aa,1.0,19700.10499995231
272,22.0,hard,control,Experiment 1 (no preview),3,visible,2.0,a,2.0,,2.0,a,b,a,a,1.0,4698.33099997614
272,22.0,hard,control,Experiment 1 (no preview),4,hidden,0.0,,,,3.0,aa,ab,ab,ab,1.0,16330.103000023868
272,22.0,hard,control,Experiment 1 (no preview),5,visible,3.0,b,2.0,,1.0,a,b,b,b,1.0,4894.003000000026
272,22.0,hard,control,Experiment 1 (no preview),6,visible,1.0,b,1.0,,3.0,a,b,b,b,1.0,4904.269999952288
272,22.0,hard,control,Experiment 1 (no preview),7,visible,3.0,a,2.0,,2.0,a,b,a,a,1.0,6093.683000023826
272,22.0,hard,control,Experiment 1 (no preview),8,hidden,3.0,,,,3.0,aa,ba,aa,aa,1.0,8379.55200002389
272,22.0,hard,control,Experiment 1 (no preview),9,visible,0.0,a,3.0,,0.0,a,b,a,b,0.0,12314.330999952275
272,22.0,hard,control,Experiment 1 (no preview),10,hidden,1.0,,,,3.0,ab,ba,ab,ab,1.0,5252.106999928481
272,22.0,hard,control,Experiment 1 (no preview),11,hidden,2.0,,,,1.0,ba,ab,ab,ab,1.0,7198.349999976112
272,22.0,hard,control,Experiment 1 (no preview),12,visible,2.0,a,2.0,,1.0,a,b,b,b,1.0,7196.602999976138
272,22.0,hard,control,Experiment 1 (no preview),13,visible,0.0,b,3.0,,3.0,a,b,b,a,0.0,5512.798000023817
272,22.0,hard,control,Experiment 1 (no preview),14,hidden,3.0,,,,1.0,ba,bb,bb,ba,0.0,4457.376000023796
272,22.0,hard,control,Experiment 1 (no preview),15,hidden,2.0,,,,3.0,ba,ab,ba,ab,0.0,2558.350999928429
272,22.0,hard,control,Experiment 1 (no preview),16,visible,1.0,a,1.0,,0.0,a,b,a,b,0.0,11329.594999928491
272,22.0,hard,control,Experiment 1 (no preview),17,visible,2.0,b,1.0,,0.0,a,b,a,a,1.0,6540.6419999285135
272,22.0,hard,control,Experiment 1 (no preview),18,visible,2.0,a,2.0,,0.0,a,b,b,a,0.0,3241.1870000000345
272,22.0,hard,control,Experiment 1 (no preview),19,hidden,1.0,,,,0.0,aa,bb,aa,bb,0.0,26362.983000000007
272,22.0,hard,control,Experiment 1 (no preview),20,hidden,1.0,,,,2.0,ab,ba,ba,ab,0.0,6173.740000023856
273,22.0,hard,control,Experiment 1 (no preview),1,hidden,1.0,,,,3.0,ab,ba,ab,ab,1.0,10163.60799992847
273,22.0,hard,control,Experiment 1 (no preview),2,visible,3.0,a,2.0,,2.0,a,b,a,a,1.0,1456.6269999761716
273,22.0,hard,control,Experiment 1 (no preview),3,hidden,1.0,,,,2.0,ab,ba,ba,ba,1.0,6914.239999976184
273,22.0,hard,control,Experiment 1 (no preview),4,visible,3.0,b,2.0,,1.0,a,b,b,b,1.0,1304.4169999761507
273,22.0,hard,control,Experiment 1 (no preview),5,hidden,3.0,,,,1.0,ba,bb,bb,bb,1.0,1855.9340000000084
273,22.0,hard,control,Experiment 1 (no preview),6,hidden,3.0,,,,3.0,aa,ba,aa,aa,1.0,1641.130999952322
273,22.0,hard,control,Experiment 1 (no preview),7,hidden,1.0,,,,0.0,aa,bb,aa,aa,1.0,3123.2309999522986
273,22.0,hard,control,Experiment 1 (no preview),8,hidden,0.0,,,,0.0,aa,bb,aa,aa,1.0,1521.90599992848
273,22.0,hard,control,Experiment 1 (no preview),9,visible,1.0,b,1.0,,3.0,a,b,b,a,0.0,4528.929999976186
273,22.0,hard,control,Experiment 1 (no preview),10,visible,2.0,a,2.0,,1.0,a,b,b,b,1.0,1279.0439999761293
273,22.0,hard,control,Experiment 1 (no preview),11,visible,2.0,b,1.0,,0.0,a,b,a,b,0.0,3598.8429999284563
273,22.0,hard,control,Experiment 1 (no preview),12,visible,0.0,a,3.0,,0.0,a,b,a,b,0.0,3322.3399999284884
273,22.0,hard,control,Experiment 1 (no preview),13,hidden,2.0,,,,1.0,ba,ab,ab,ab,1.0,2625.200999976136
273,22.0,hard,control,Experiment 1 (no preview),14,visible,1.0,a,1.0,,0.0,a,b,a,a,1.0,9052.561999952304
273,22.0,hard,control,Experiment 1 (no preview),15,visible,2.0,a,2.0,,2.0,a,b,a,a,1.0,685.6069999522879
273,22.0,hard,control,Experiment 1 (no preview),16,visible,2.0,a,2.0,,0.0,a,b,b,b,1.0,7981.525999928475
273,22.0,hard,control,Experiment 1 (no preview),17,hidden,2.0,,,,3.0,ba,ab,ba,ba,1.0,5785.818999952287
273,22.0,hard,control,Experiment 1 (no preview),18,hidden,1.0,,,,3.0,aa,ba,aa,aa,1.0,3845.982999952336
273,22.0,hard,control,Experiment 1 (no preview),19,visible,0.0,b,3.0,,3.0,a,b,b,b,1.0,6127.631999976176
273,22.0,hard,control,Experiment 1 (no preview),20,hidden,0.0,,,,3.0,aa,ab,ab,ab,1.0,7205.6239999284735
274,22.0,hard,control,Experiment 1 (no preview),1,hidden,0.0,,,,0.0,aa,bb,aa,bb,0.0,3902.750999952317
274,22.0,hard,control,Experiment 1 (no preview),2,visible,0.0,b,3.0,,3.0,a,b,b,b,1.0,2190.5070000953565
274,22.0,hard,control,Experiment 1 (no preview),3,hidden,2.0,,,,1.0,ba,ab,ab,ab,1.0,4506.295000000013
274,22.0,hard,control,Experiment 1 (no preview),4,hidden,3.0,,,,3.0,aa,ba,aa,ba,0.0,15555.285000095377
274,22.0,hard,control,Experiment 1 (no preview),5,hidden,0.0,,,,3.0,aa,ab,ab,ab,1.0,1817.0930000953667
274,22.0,hard,control,Experiment 1 (no preview),6,visible,3.0,a,2.0,,2.0,a,b,a,a,1.0,971.4439999999886
274,22.0,hard,control,Experiment 1 (no preview),7,visible,1.0,a,1.0,,0.0,a,b,a,b,0.0,872.9220000953646
274,22.0,hard,control,Experiment 1 (no preview),8,hidden,3.0,,,,1.0,ba,bb,bb,bb,1.0,1081.8740000953549
274,22.0,hard,control,Experiment 1 (no preview),9,visible,0.0,a,3.0,,0.0,a,b,a,b,0.0,793.8549999523093
274,22.0,hard,control,Experiment 1 (no preview),10,visible,2.0,b,1.0,,0.0,a,b,a,b,0.0,876.9829999523063
274,22.0,hard,control,Experiment 1 (no preview),11,visible,1.0,b,1.0,,3.0,a,b,b,b,1.0,1125.1520000953751
274,22.0,hard,control,Experiment 1 (no preview),12,visible,2.0,a,2.0,,0.0,a,b,b,b,1.0,875.2519999523065
274,22.0,hard,control,Experiment 1 (no preview),13,hidden,1.0,,,,3.0,ab,ba,ab,ab,1.0,2252.396999952325
274,22.0,hard,control,Experiment 1 (no preview),14,hidden,1.0,,,,3.0,aa,ba,aa,aa,1.0,5077.746999999974
274,22.0,hard,control,Experiment 1 (no preview),15,visible,2.0,a,2.0,,2.0,a,b,a,a,1.0,1022.2900000953814
274,22.0,hard,control,Experiment 1 (no preview),16,hidden,1.0,,,,2.0,ab,ba,ba,ba,1.0,3537.1549999522977
274,22.0,hard,control,Experiment 1 (no preview),17,visible,3.0,b,2.0,,1.0,a,b,b,b,1.0,1671.2819999523344
274,22.0,hard,control,Experiment 1 (no preview),18,visible,2.0,a,2.0,,1.0,a,b,b,b,1.0,776.536000095366
274,22.0,hard,control,Experiment 1 (no preview),19,hidden,2.0,,,,3.0,ba,ab,ba,ab,0.0,6291.75900000002
274,22.0,hard,control,Experiment 1 (no preview),20,hidden,1.0,,,,0.0,aa,bb,aa,bb,0.0,1204.4780000000028
275,22.0,hard,control,Experiment 1 (no preview),1,hidden,1.0,,,,3.0,aa,ba,aa,ba,0.0,11703.0
275,22.0,hard,control,Experiment 1 (no preview),2,hidden,1.0,,,,3.0,ab,ba,ab,ab,1.0,10377.0
275,22.0,hard,control,Experiment 1 (no preview),3,visible,3.0,b,2.0,,1.0,a,b,b,b,1.0,3863.0
275,22.0,hard,control,Experiment 1 (no preview),4,visible,3.0,a,2.0,,2.0,a,b,a,a,1.0,5079.0
275,22.0,hard,control,Experiment 1 (no preview),5,hidden,0.0,,,,0.0,aa,bb,aa,bb,0.0,10859.0
275,22.0,hard,control,Experiment 1 (no preview),6,visible,2.0,b,1.0,,0.0,a,b,a,a,1.0,17077.0
275,22.0,hard,control,Experiment 1 (no preview),7,hidden,0.0,,,,3.0,aa,ab,ab,ab,1.0,4992.0
275,22.0,hard,control,Experiment 1 (no preview),8,visible,2.0,a,2.0,,1.0,a,b,b,b,1.0,2224.0
275,22.0,hard,control,Experiment 1 (no preview),9,hidden,2.0,,,,1.0,ba,ab,ab,ba,0.0,13783.0
275,22.0,hard,control,Experiment 1 (no preview),10,visible,1.0,b,1.0,,3.0,a,b,b,a,0.0,3444.0
275,22.0,hard,control,Experiment 1 (no preview),11,hidden,1.0,,,,0.0,aa,bb,aa,bb,0.0,3957.0
275,22.0,hard,control,Experiment 1 (no preview),12,hidden,3.0,,,,3.0,aa,ba,aa,ba,0.0,6466.0
275,22.0,hard,control,Experiment 1 (no preview),13,hidden,3.0,,,,1.0,ba,bb,bb,bb,1.0,2361.0
275,22.0,hard,control,Experiment 1 (no preview),14,visible,1.0,a,1.0,,0.0,a,b,a,a,1.0,5280.0
275,22.0,hard,control,Experiment 1 (no preview),15,visible,0.0,b,3.0,,3.0,a,b,b,b,1.0,2627.0
275,22.0,hard,control,Experiment 1 (no preview),16,hidden,1.0,,,,2.0,ab,ba,ba,ba,1.0,5240.0
275,22.0,hard,control,Experiment 1 (no preview),17,visible,2.0,a,2.0,,2.0,a,b,a,a,1.0,560.0
275,22.0,hard,control,Experiment 1 (no preview),18,visible,2.0,a,2.0,,0.0,a,b,b,b,1.0,600.0
275,22.0,hard,control,Experiment 1 (no preview),19,visible,0.0,a,3.0,,0.0,a,b,a,b,0.0,1094.0
275,22.0,hard,control,Experiment 1 (no preview),20,hidden,2.0,,,,3.0,ba,ab,ba,ab,0.0,8940.0
276,22.0,hard,control,Experiment 1 (no preview),1,visible,3.0,a,2.0,,2.0,a,b,a,a,1.0,1840.6770000000247
276,22.0,hard,control,Experiment 1 (no preview),2,hidden,2.0,,,,1.0,ba,ab,ab,ab,1.0,5281.565000000002
276,22.0,hard,control,Experiment 1 (no preview),3,hidden,1.0,,,,2.0,ab,ba,ba,ba,1.0,5160.419999999984
276,22.0,hard,control,Experiment 1 (no preview),4,visible,2.0,a,2.0,,2.0,a,b,a,a,1.0,1924.4159999761612
276,22.0,hard,control,Experiment 1 (no preview),5,visible,1.0,a,1.0,,0.0,a,b,a,a,1.0,5842.748000000021
276,22.0,hard,control,Experiment 1 (no preview),6,hidden,0.0,,,,0.0,aa,bb,aa,aa,1.0,3699.3249999761465
276,22.0,hard,control,Experiment 1 (no preview),7,visible,2.0,a,2.0,,0.0,a,b,b,a,0.0,1497.980999982101
276,22.0,hard,control,Experiment 1 (no preview),8,hidden,3.0,,,,3.0,aa,ba,aa,aa,1.0,5160.695999999996
276,22.0,hard,control,Experiment 1 (no preview),9,visible,2.0,a,2.0,,1.0,a,b,b,b,1.0,1100.8389999761712
276,22.0,hard,control,Experiment 1 (no preview),10,visible,1.0,b,1.0,,3.0,a,b,b,b,1.0,1147.8029999761493
276,22.0,hard,control,Experiment 1 (no preview),11,visible,3.0,b,2.0,,1.0,a,b,b,b,1.0,3848.443000000029
276,22.0,hard,control,Experiment 1 (no preview),12,hidden,1.0,,,,3.0,aa,ba,aa,ba,0.0,6905.086999976134
276,22.0,hard,control,Experiment 1 (no preview),13,hidden,2.0,,,,3.0,ba,ab,ba,ab,0.0,5663.053000000014
276,22.0,hard,control,Experiment 1 (no preview),14,hidden,3.0,,,,1.0,ba,bb,bb,bb,1.0,7631.13799997617
276,22.0,hard,control,Experiment 1 (no preview),15,hidden,1.0,,,,3.0,ab,ba,ab,ab,1.0,1943.811999976169
276,22.0,hard,control,Experiment 1 (no preview),16,visible,0.0,a,3.0,,0.0,a,b,a,a,1.0,685.3759999761824
276,22.0,hard,control,Experiment 1 (no preview),17,hidden,0.0,,,,3.0,aa,ab,ab,ab,1.0,1645.140000000014
276,22.0,hard,control,Experiment 1 (no preview),18,visible,2.0,b,1.0,,0.0,a,b,a,a,1.0,1902.173999976134
276,22.0,hard,control,Experiment 1 (no preview),19,hidden,1.0,,,,0.0,aa,bb,aa,aa,1.0,2789.173999999999
276,22.0,hard,control,Experiment 1 (no preview),20,visible,0.0,b,3.0,,3.0,a,b,b,a,0.0,1728.25900000002
277,22.0,hard,control,Experiment 1 (no preview),1,visible,2.0,a,2.0,,0.0,a,b,b,b,1.0,7628.181000000011
277,22.0,hard,control,Experiment 1 (no preview),2,hidden,2.0,,,,1.0,ba,ab,ab,ab,1.0,13834.181000000011
277,22.0,hard,control,Experiment 1 (no preview),3,visible,2.0,b,1.0,,0.0,a,b,a,a,1.0,5682.880000011937
277,22.0,hard,control,Experiment 1 (no preview),4,hidden,1.0,,,,3.0,aa,ba,aa,aa,1.0,805.4010000059498
277,22.0,hard,control,Experiment 1 (no preview),5,hidden,1.0,,,,2.0,ab,ba,ba,ab,0.0,2334.4409999940544
277,22.0,hard,control,Experiment 1 (no preview),6,visible,0.0,a,3.0,,0.0,a,b,a,a,1.0,5432.476000000024
277,22.0,hard,control,Experiment 1 (no preview),7,hidden,1.0,,,,3.0,ab,ba,ab,ba,0.0,2307.2679999940447
277,22.0,hard,control,Experiment 1 (no preview),8,hidden,0.0,,,,0.0,aa,bb,aa,bb,0.0,3898.9810000178986
277,22.0,hard,control,Experiment 1 (no preview),9,visible,2.0,a,2.0,,1.0,a,b,b,b,1.0,2201.549999994051
277,22.0,hard,control,Experiment 1 (no preview),10,hidden,0.0,,,,3.0,aa,ab,ab,aa,0.0,1946.179999999993
277,22.0,hard,control,Experiment 1 (no preview),11,visible,0.0,b,3.0,,3.0,a,b,b,b,1.0,1366.1060000000289
277,22.0,hard,control,Experiment 1 (no preview),12,visible,3.0,a,2.0,,2.0,a,b,a,a,1.0,716.8020000000251
277,22.0,hard,control,Experiment 1 (no preview),13,hidden,1.0,,,,0.0,aa,bb,aa,aa,1.0,907.5380000059376
277,22.0,hard,control,Experiment 1 (no preview),14,hidden,2.0,,,,3.0,ba,ab,ba,ab,0.0,1890.1239999940155
277,22.0,hard,control,Experiment 1 (no preview),15,hidden,3.0,,,,3.0,aa,ba,aa,aa,1.0,1195.9079999999958
277,22.0,hard,control,Experiment 1 (no preview),16,visible,3.0,b,2.0,,1.0,a,b,b,b,1.0,3244.340000017896
277,22.0,hard,control,Experiment 1 (no preview),17,visible,1.0,a,1.0,,0.0,a,b,a,b,0.0,764.2780000178609
277,22.0,hard,control,Experiment 1 (no preview),18,visible,1.0,b,1.0,,3.0,a,b,b,a,0.0,2467.481000000029
277,22.0,hard,control,Experiment 1 (no preview),19,hidden,3.0,,,,1.0,ba,bb,bb,bb,1.0,2938.22100000002
277,22.0,hard,control,Experiment 1 (no preview),20,visible,2.0,a,2.0,,2.0,a,b,a,a,1.0,2562.944000005955
286,21.0,easy,control,Experiment 1 (no preview),1,visible,2.0,a,3.0,,1.0,a,b,a,b,0.0,12704.0
286,21.0,easy,control,Experiment 1 (no preview),2,hidden,2.0,,,,2.0,aa,bb,bb,bb,1.0,6313.0
286,21.0,easy,control,Experiment 1 (no preview),3,hidden,3.0,,,,1.0,aa,ba,ba,aa,0.0,9848.0
286,21.0,easy,control,Experiment 1 (no preview),4,hidden,0.0,,,,2.0,aa,bb,bb,bb,1.0,5524.0
286,21.0,easy,control,Experiment 1 (no preview),5,hidden,3.0,,,,3.0,bb,ba,bb,ba,0.0,7622.0
286,21.0,easy,control,Experiment 1 (no preview),6,visible,0.0,b,2.0,,3.0,a,b,a,a,1.0,8724.0
286,21.0,easy,control,Experiment 1 (no preview),7,hidden,0.0,,,,0.0,aa,ab,aa,ab,0.0,13706.0
286,21.0,easy,control,Experiment 1 (no preview),8,visible,0.0,b,2.0,,2.0,a,b,b,a,0.0,4640.0
286,21.0,easy,control,Experiment 1 (no preview),9,visible,0.0,a,2.0,,0.0,a,b,a,b,0.0,5637.0
286,21.0,easy,control,Experiment 1 (no preview),10,hidden,2.0,,,,3.0,aa,ab,ab,aa,0.0,5876.0
286,21.0,easy,control,Experiment 1 (no preview),11,visible,3.0,b,3.0,,0.0,a,b,a,b,0.0,1375.0
286,21.0,easy,control,Experiment 1 (no preview),12,hidden,2.0,,,,1.0,ab,aa,aa,ab,0.0,2220.0
286,21.0,easy,control,Experiment 1 (no preview),13,hidden,3.0,,,,2.0,aa,bb,aa,aa,1.0,11486.0
286,21.0,easy,control,Experiment 1 (no preview),14,visible,0.0,a,2.0,,3.0,a,b,a,a,1.0,1636.0
286,21.0,easy,control,Experiment 1 (no preview),15,hidden,0.0,,,,3.0,ab,aa,aa,ab,0.0,1129.0
286,21.0,easy,control,Experiment 1 (no preview),16,hidden,3.0,,,,2.0,ab,ba,ab,ba,0.0,1205.0
286,21.0,easy,control,Experiment 1 (no preview),17,visible,2.0,a,3.0,,3.0,a,b,b,a,0.0,1608.0
286,21.0,easy,control,Experiment 1 (no preview),18,visible,2.0,b,2.0,,2.0,a,b,b,b,1.0,3014.0
286,21.0,easy,control,Experiment 1 (no preview),19,visible,3.0,b,3.0,,3.0,a,b,b,a,0.0,1094.0
286,21.0,easy,control,Experiment 1 (no preview),20,visible,0.0,a,2.0,,2.0,a,b,b,b,1.0,1756.0
287,21.0,easy,control,Experiment 1 (no preview),1,visible,0.0,a,2.0,,0.0,a,b,a,b,0.0,7738.690999976156
287,21.0,easy,control,Experiment 1 (no preview),2,hidden,0.0,,,,0.0,aa,ab,aa,ab,0.0,9209.29200001192
287,21.0,easy,control,Experiment 1 (no preview),3,hidden,3.0,,,,3.0,bb,ba,bb,bb,1.0,5622.167999988073
287,21.0,easy,control,Experiment 1 (no preview),4,visible,3.0,b,3.0,,3.0,a,b,b,b,1.0,3484.469999976165
287,21.0,easy,control,Experiment 1 (no preview),5,hidden,0.0,,,,2.0,aa,bb,bb,aa,0.0,4912.221999988076
287,21.0,easy,control,Experiment 1 (no preview),6,hidden,2.0,,,,3.0,aa,ab,ab,aa,0.0,5394.40099998808
287,21.0,easy,control,Experiment 1 (no preview),7,hidden,0.0,,,,3.0,ab,aa,aa,aa,1.0,6250.8949999761535
287,21.0,easy,control,Experiment 1 (no preview),8,visible,3.0,b,3.0,,0.0,a,b,a,a,1.0,6040.127000023844
287,21.0,easy,control,Experiment 1 (no preview),9,hidden,3.0,,,,2.0,aa,bb,aa,aa,1.0,9182.278999988106
287,21.0,easy,control,Experiment 1 (no preview),10,hidden,2.0,,,,2.0,aa,bb,bb,bb,1.0,3087.807000011904
287,21.0,easy,control,Experiment 1 (no preview),11,visible,0.0,b,2.0,,2.0,a,b,b,b,1.0,2288.302999988082
287,21.0,easy,control,Experiment 1 (no preview),12,visible,0.0,a,2.0,,2.0,a,b,b,b,1.0,6579.50500002387
287,21.0,easy,control,Experiment 1 (no preview),13,visible,2.0,a,3.0,,3.0,a,b,b,b,1.0,6397.969999999972
287,21.0,easy,control,Experiment 1 (no preview),14,hidden,2.0,,,,1.0,ab,aa,aa,aa,1.0,6247.382999988098
287,21.0,easy,control,Experiment 1 (no preview),15,visible,2.0,a,3.0,,1.0,a,b,a,a,1.0,3557.993000023824
287,21.0,easy,control,Experiment 1 (no preview),16,visible,0.0,b,2.0,,3.0,a,b,a,a,1.0,14845.29399997613
287,21.0,easy,control,Experiment 1 (no preview),17,hidden,3.0,,,,1.0,aa,ba,ba,aa,0.0,6588.991999988095
287,21.0,easy,control,Experiment 1 (no preview),18,visible,2.0,b,2.0,,2.0,a,b,b,b,1.0,4851.411000023829
287,21.0,easy,control,Experiment 1 (no preview),19,hidden,3.0,,,,2.0,ab,ba,ab,ab,1.0,15890.507000023848
287,21.0,easy,control,Experiment 1 (no preview),20,visible,0.0,a,2.0,,3.0,a,b,a,a,1.0,4909.885999999999
288,21.0,easy,control,Experiment 1 (no preview),1,visible,0.0,a,2.0,,3.0,a,b,a,b,0.0,3382.098000008933
288,21.0,easy,control,Experiment 1 (no preview),2,visible,0.0,a,2.0,,2.0,a,b,b,a,0.0,931.828999999998
288,21.0,easy,control,Experiment 1 (no preview),3,hidden,3.0,,,,2.0,aa,bb,aa,aa,1.0,3733.769
288,21.0,easy,control,Experiment 1 (no preview),4,hidden,2.0,,,,2.0,aa,bb,bb,aa,0.0,1954.670000008948
288,21.0,easy,control,Experiment 1 (no preview),5,visible,0.0,b,2.0,,2.0,a,b,b,a,0.0,2729.347000000009
288,21.0,easy,control,Experiment 1 (no preview),6,hidden,3.0,,,,2.0,ab,ba,ab,ba,0.0,9073.663000008964
288,21.0,easy,control,Experiment 1 (no preview),7,visible,0.0,a,2.0,,0.0,a,b,a,b,0.0,2401.232000008924
288,21.0,easy,control,Experiment 1 (no preview),8,visible,3.0,b,3.0,,0.0,a,b,a,b,0.0,2966.95199999999
288,21.0,easy,control,Experiment 1 (no preview),9,hidden,3.0,,,,1.0,aa,ba,ba,ba,1.0,7482.705000000016
288,21.0,easy,control,Experiment 1 (no preview),10,hidden,2.0,,,,3.0,aa,ab,ab,ab,1.0,2718.4130000000005
288,21.0,easy,control,Experiment 1 (no preview),11,hidden,0.0,,,,3.0,ab,aa,aa,ab,0.0,5054.729000008956
288,21.0,easy,control,Experiment 1 (no preview),12,visible,3.0,b,3.0,,3.0,a,b,b,b,1.0,3394.897000008961
288,21.0,easy,control,Experiment 1 (no preview),13,hidden,0.0,,,,2.0,aa,bb,bb,bb,1.0,3458.3730000000214
288,21.0,easy,control,Experiment 1 (no preview),14,hidden,3.0,,,,3.0,bb,ba,bb,bb,1.0,8510.830000008922
288,21.0,easy,control,Experiment 1 (no preview),15,hidden,0.0,,,,0.0,aa,ab,aa,aa,1.0,5212.769000008935
288,21.0,easy,control,Experiment 1 (no preview),16,visible,0.0,b,2.0,,3.0,a,b,a,b,0.0,3477.8360000000102
288,21.0,easy,control,Experiment 1 (no preview),17,visible,2.0,b,2.0,,2.0,a,b,b,b,1.0,3025.932000008936
288,21.0,easy,control,Experiment 1 (no preview),18,visible,2.0,a,3.0,,3.0,a,b,b,b,1.0,956.6969999999856
288,21.0,easy,control,Experiment 1 (no preview),19,hidden,2.0,,,,1.0,ab,aa,aa,ab,0.0,3612.809000000008
288,21.0,easy,control,Experiment 1 (no preview),20,visible,2.0,a,3.0,,1.0,a,b,a,b,0.0,1352.8220000089495
289,21.0,easy,control,Experiment 1 (no preview),1,visible,2.0,b,2.0,,2.0,a,b,b,b,1.0,3315.286999991047
289,21.0,easy,control,Experiment 1 (no preview),2,visible,0.0,a,2.0,,3.0,a,b,a,b,0.0,1405.5659999910567
289,21.0,easy,control,Experiment 1 (no preview),3,visible,2.0,a,3.0,,3.0,a,b,b,b,1.0,671.2220000029774
289,21.0,easy,control,Experiment 1 (no preview),4,visible,3.0,b,3.0,,3.0,a,b,b,a,0.0,573.5039999970177
289,21.0,easy,control,Experiment 1 (no preview),5,hidden,3.0,,,,1.0,aa,ba,ba,aa,0.0,2681.4009999910486
289,21.0,easy,control,Experiment 1 (no preview),6,visible,2.0,a,3.0,,1.0,a,b,a,a,1.0,824.234999999986
289,21.0,easy,control,Experiment 1 (no preview),7,hidden,0.0,,,,2.0,aa,bb,bb,bb,1.0,625.4939999940107
289,21.0,easy,control,Experiment 1 (no preview),8,hidden,2.0,,,,2.0,aa,bb,bb,aa,0.0,3572.9309999910765
289,21.0,easy,control,Experiment 1 (no preview),9,hidden,3.0,,,,2.0,aa,bb,aa,bb,0.0,690.2330000000075
289,21.0,easy,control,Experiment 1 (no preview),10,hidden,3.0,,,,3.0,bb,ba,bb,ba,0.0,415.33500000002095
289,21.0,easy,control,Experiment 1 (no preview),11,hidden,0.0,,,,0.0,aa,ab,aa,aa,1.0,1018.1589999999852
289,21.0,easy,control,Experiment 1 (no preview),12,hidden,2.0,,,,1.0,ab,aa,aa,aa,1.0,2135.700999991037
289,21.0,easy,control,Experiment 1 (no preview),13,visible,0.0,b,2.0,,3.0,a,b,a,b,0.0,1666.4919999910635
289,21.0,easy,control,Experiment 1 (no preview),14,visible,0.0,b,2.0,,2.0,a,b,b,b,1.0,1266.1149999940535
289,21.0,easy,control,Experiment 1 (no preview),15,hidden,0.0,,,,3.0,ab,aa,aa,ab,0.0,1147.630999999994
289,21.0,easy,control,Experiment 1 (no preview),16,visible,3.0,b,3.0,,0.0,a,b,a,a,1.0,920.6969999910798
289,21.0,easy,control,Experiment 1 (no preview),17,hidden,3.0,,,,2.0,ab,ba,ab,ba,0.0,2496.8670000000275
289,21.0,easy,control,Experiment 1 (no preview),18,visible,0.0,a,2.0,,0.0,a,b,a,a,1.0,1621.4209999910672
289,21.0,easy,control,Experiment 1 (no preview),19,hidden,2.0,,,,3.0,aa,ab,ab,ab,1.0,712.2030000030063
289,21.0,easy,control,Experiment 1 (no preview),20,visible,0.0,a,2.0,,2.0,a,b,b,b,1.0,1817.532999991032
290,21.0,easy,control,Experiment 1 (no preview),1,hidden,3.0,,,,2.0,ab,ba,ab,ab,1.0,9147.834000000004
290,21.0,easy,control,Experiment 1 (no preview),2,hidden,3.0,,,,2.0,aa,bb,aa,bb,0.0,5638.337999999989
290,21.0,easy,control,Experiment 1 (no preview),3,visible,2.0,a,3.0,,1.0,a,b,a,a,1.0,3993.3120000477065
290,21.0,easy,control,Experiment 1 (no preview),4,visible,2.0,a,3.0,,3.0,a,b,b,a,0.0,2222.8920000238577
290,21.0,easy,control,Experiment 1 (no preview),5,hidden,3.0,,,,3.0,bb,ba,bb,ba,0.0,5321.45300004771
290,21.0,easy,control,Experiment 1 (no preview),6,hidden,0.0,,,,0.0,aa,ab,aa,aa,1.0,1995.080000035756
290,21.0,easy,control,Experiment 1 (no preview),7,hidden,2.0,,,,2.0,aa,bb,bb,bb,1.0,2135.7320000357577
290,21.0,easy,control,Experiment 1 (no preview),8,hidden,2.0,,,,1.0,ab,aa,aa,aa,1.0,6420.944000011892
290,21.0,easy,control,Experiment 1 (no preview),9,visible,0.0,b,2.0,,3.0,a,b,a,a,1.0,2874.26800003578
290,21.0,easy,control,Experiment 1 (no preview),10,hidden,3.0,,,,1.0,aa,ba,ba,aa,0.0,2342.985000035784
290,21.0,easy,control,Experiment 1 (no preview),11,visible,0.0,a,2.0,,2.0,a,b,b,b,1.0,1463.381000047666
290,21.0,easy,control,Experiment 1 (no preview),12,hidden,0.0,,,,2.0,aa,bb,bb,bb,1.0,2800.3760000476614
290,21.0,easy,control,Experiment 1 (no preview),13,visible,3.0,b,3.0,,0.0,a,b,a,a,1.0,1040.053000011947
290,21.0,easy,control,Experiment 1 (no preview),14,visible,0.0,a,2.0,,3.0,a,b,a,a,1.0,1013.8540000238572
290,21.0,easy,control,Experiment 1 (no preview),15,hidden,2.0,,,,3.0,aa,ab,ab,aa,0.0,1916.8770000119112
290,21.0,easy,control,Experiment 1 (no preview),16,hidden,0.0,,,,3.0,ab,aa,aa,aa,1.0,1781.856000047701
290,21.0,easy,control,Experiment 1 (no preview),17,visible,2.0,b,2.0,,2.0,a,b,b,b,1.0,742.6390000238316
290,21.0,easy,control,Experiment 1 (no preview),18,visible,0.0,b,2.0,,2.0,a,b,b,b,1.0,1278.1599999999744
290,21.0,easy,control,Experiment 1 (no preview),19,visible,0.0,a,2.0,,0.0,a,b,a,a,1.0,2412.1260000238544
290,21.0,easy,control,Experiment 1 (no preview),20,visible,3.0,b,3.0,,3.0,a,b,b,a,0.0,763.8200000119396
291,21.0,easy,control,Experiment 1 (no preview),1,hidden,2.0,,,,2.0,aa,bb,bb,bb,1.0,4280.206000047678
291,21.0,easy,control,Experiment 1 (no preview),2,visible,0.0,b,2.0,,2.0,a,b,b,b,1.0,1017.8600001430603
291,21.0,easy,control,Experiment 1 (no preview),3,visible,2.0,a,3.0,,1.0,a,b,a,a,1.0,1584.0740001907106
291,21.0,easy,control,Experiment 1 (no preview),4,visible,0.0,a,2.0,,3.0,a,b,a,a,1.0,1871.085000000021
291,21.0,easy,control,Experiment 1 (no preview),5,visible,2.0,b,2.0,,2.0,a,b,b,b,1.0,711.4670000476763
291,21.0,easy,control,Experiment 1 (no preview),6,visible,0.0,b,2.0,,3.0,a,b,a,a,1.0,800.9010000000126
291,21.0,easy,control,Experiment 1 (no preview),7,hidden,0.0,,,,0.0,aa,ab,aa,ab,0.0,3467.39600004768
291,21.0,easy,control,Experiment 1 (no preview),8,visible,0.0,a,2.0,,0.0,a,b,a,a,1.0,4138.817000143055
291,21.0,easy,control,Experiment 1 (no preview),9,hidden,0.0,,,,2.0,aa,bb,bb,aa,0.0,935.9550000476884
291,21.0,easy,control,Experiment 1 (no preview),10,hidden,2.0,,,,1.0,ab,aa,aa,aa,1.0,4477.560000143072
291,21.0,easy,control,Experiment 1 (no preview),11,hidden,2.0,,,,3.0,aa,ab,ab,aa,0.0,1187.7440001907526
291,21.0,easy,control,Experiment 1 (no preview),12,hidden,3.0,,,,2.0,aa,bb,aa,aa,1.0,544.9460000476683
291,21.0,easy,control,Experiment 1 (no preview),13,hidden,3.0,,,,1.0,aa,ba,ba,aa,0.0,518.6290000476874
291,21.0,easy,control,Experiment 1 (no preview),14,hidden,3.0,,,,2.0,ab,ba,ab,ab,1.0,513.0540000000037
291,21.0,easy,control,Experiment 1 (no preview),15,hidden,3.0,,,,3.0,bb,ba,bb,bb,1.0,1065.7700001430348
291,21.0,easy,control,Experiment 1 (no preview),16,visible,2.0,a,3.0,,3.0,a,b,b,b,1.0,2530.3570001430344
291,21.0,easy,control,Experiment 1 (no preview),17,hidden,0.0,,,,3.0,ab,aa,aa,aa,1.0,3957.353000143077
291,21.0,easy,control,Experiment 1 (no preview),18,visible,3.0,b,3.0,,3.0,a,b,b,b,1.0,829.6660000476986
291,21.0,easy,control,Experiment 1 (no preview),19,visible,0.0,a,2.0,,2.0,a,b,b,b,1.0,664.2650001907605
291,21.0,easy,control,Experiment 1 (no preview),20,visible,3.0,b,3.0,,0.0,a,b,a,a,1.0,1202.7410000953823
292,21.0,easy,control,Experiment 1 (no preview),1,visible,2.0,a,3.0,,1.0,a,b,a,b,0.0,7456.270000023855
292,21.0,easy,control,Experiment 1 (no preview),2,visible,2.0,b,2.0,,2.0,a,b,b,b,1.0,988.6879999999946
292,21.0,easy,control,Experiment 1 (no preview),3,visible,0.0,a,2.0,,2.0,a,b,b,b,1.0,2105.867999999988
292,21.0,easy,control,Experiment 1 (no preview),4,hidden,3.0,,,,1.0,aa,ba,ba,ba,1.0,1272.5210000357763
292,21.0,easy,control,Experiment 1 (no preview),5,visible,2.0,a,3.0,,3.0,a,b,b,a,0.0,2272.478999999992
292,21.0,easy,control,Experiment 1 (no preview),6,visible,0.0,a,2.0,,3.0,a,b,a,a,1.0,3205.5380000238365
292,21.0,easy,control,Experiment 1 (no preview),7,hidden,0.0,,,,2.0,aa,bb,bb,aa,0.0,4789.739999988087
292,21.0,easy,control,Experiment 1 (no preview),8,hidden,3.0,,,,2.0,ab,ba,ab,ab,1.0,2789.264000023832
292,21.0,easy,control,Experiment 1 (no preview),9,hidden,3.0,,,,3.0,bb,ba,bb,bb,1.0,2005.365000023856
292,21.0,easy,control,Experiment 1 (no preview),10,hidden,2.0,,,,2.0,aa,bb,bb,bb,1.0,2522.518999988068
292,21.0,easy,control,Experiment 1 (no preview),11,hidden,3.0,,,,2.0,aa,bb,aa,aa,1.0,2155.3940000238363
292,21.0,easy,control,Experiment 1 (no preview),12,hidden,0.0,,,,0.0,aa,ab,aa,aa,1.0,4905.853999999992
292,21.0,easy,control,Experiment 1 (no preview),13,hidden,0.0,,,,3.0,ab,aa,aa,ab,0.0,2288.724000035756
292,21.0,easy,control,Experiment 1 (no preview),14,hidden,2.0,,,,3.0,aa,ab,ab,ab,1.0,3106.5560000000114
292,21.0,easy,control,Experiment 1 (no preview),15,visible,0.0,b,2.0,,3.0,a,b,a,a,1.0,1671.9679999999937
292,21.0,easy,control,Experiment 1 (no preview),16,hidden,2.0,,,,1.0,ab,aa,aa,aa,1.0,1405.742000035767
292,21.0,easy,control,Experiment 1 (no preview),17,visible,0.0,b,2.0,,2.0,a,b,b,b,1.0,655.3130000118981
292,21.0,easy,control,Experiment 1 (no preview),18,visible,3.0,b,3.0,,0.0,a,b,a,a,1.0,1905.7129999880565
292,21.0,easy,control,Experiment 1 (no preview),19,visible,3.0,b,3.0,,3.0,a,b,b,b,1.0,771.7050000238232
292,21.0,easy,control,Experiment 1 (no preview),20,visible,0.0,a,2.0,,0.0,a,b,a,a,1.0,588.7430000119493
293,21.0,easy,control,Experiment 1 (no preview),1,hidden,2.0,,,,2.0,aa,bb,bb,aa,0.0,7888.981999999436
293,21.0,easy,control,Experiment 1 (no preview),2,visible,3.0,b,3.0,,0.0,a,b,a,a,1.0,3978.857000000193
293,21.0,easy,control,Experiment 1 (no preview),3,visible,3.0,b,3.0,,3.0,a,b,b,b,1.0,3196.791999999841
293,21.0,easy,control,Experiment 1 (no preview),4,hidden,3.0,,,,1.0,aa,ba,ba,ba,1.0,2824.1369999998133
293,21.0,easy,control,Experiment 1 (no preview),5,visible,0.0,a,2.0,,3.0,a,b,a,b,0.0,4006.401000000187
293,21.0,easy,control,Experiment 1 (no preview),6,hidden,0.0,,,,0.0,aa,ab,aa,aa,1.0,1284.3859999994163
293,21.0,easy,control,Experiment 1 (no preview),7,hidden,0.0,,,,2.0,aa,bb,bb,bb,1.0,5973.736000000557
293,21.0,easy,control,Experiment 1 (no preview),8,hidden,2.0,,,,3.0,aa,ab,ab,ab,1.0,1282.5729999990435
293,21.0,easy,control,Experiment 1 (no preview),9,hidden,2.0,,,,1.0,ab,aa,aa,ab,0.0,3621.451000000176
293,21.0,easy,control,Experiment 1 (no preview),10,visible,2.0,a,3.0,,1.0,a,b,a,b,0.0,2851.2580000002054
293,21.0,easy,control,Experiment 1 (no preview),11,hidden,3.0,,,,2.0,ab,ba,ab,ab,1.0,8134.24599999981
293,21.0,easy,control,Experiment 1 (no preview),12,visible,0.0,b,2.0,,2.0,a,b,b,b,1.0,10332.855999999098
293,21.0,easy,control,Experiment 1 (no preview),13,hidden,3.0,,,,3.0,bb,ba,bb,ba,0.0,2832.7049999998417
293,21.0,easy,control,Experiment 1 (no preview),14,hidden,3.0,,,,2.0,aa,bb,aa,bb,0.0,6301.960999999428
293,21.0,easy,control,Experiment 1 (no preview),15,visible,0.0,b,2.0,,3.0,a,b,a,a,1.0,6484.944999999483
293,21.0,easy,control,Experiment 1 (no preview),16,visible,2.0,a,3.0,,3.0,a,b,b,a,0.0,4589.8339999991
293,21.0,easy,control,Experiment 1 (no preview),17,visible,2.0,b,2.0,,2.0,a,b,b,b,1.0,971.3959999998332
293,21.0,easy,control,Experiment 1 (no preview),18,visible,0.0,a,2.0,,0.0,a,b,a,b,0.0,10190.191999999455
293,21.0,easy,control,Experiment 1 (no preview),19,hidden,0.0,,,,3.0,ab,aa,aa,aa,1.0,3419.9160000005504
293,21.0,easy,control,Experiment 1 (no preview),20,visible,0.0,a,2.0,,2.0,a,b,b,b,1.0,2963.7549999994226
306,22.0,hard,control,Experiment 2 (test preview),1,visible,0.0,b,3.0,,3.0,a,b,b,b,1.0,2781.3719999940367
306,22.0,hard,control,Experiment 2 (test preview),2,visible,2.0,a,2.0,,2.0,a,b,a,a,1.0,1037.423999994062
306,22.0,hard,control,Experiment 2 (test preview),3,visible,3.0,a,2.0,,2.0,a,b,a,a,1.0,1594.961999994004
306,22.0,hard,control,Experiment 2 (test preview),4,visible,1.0,b,1.0,,3.0,a,b,b,a,0.0,2467.2249999881024
306,22.0,hard,control,Experiment 2 (test preview),5,hidden,3.0,,,,3.0,aa,ba,aa,ba,0.0,8496.966999997036
306,22.0,hard,control,Experiment 2 (test preview),6,hidden,3.0,,,,1.0,ba,bb,bb,bb,1.0,5648.997999994084
306,22.0,hard,control,Experiment 2 (test preview),7,visible,0.0,a,3.0,,0.0,a,b,a,b,0.0,3264.662999997032
306,22.0,hard,control,Experiment 2 (test preview),8,visible,1.0,a,1.0,,0.0,a,b,a,b,0.0,1129.3830000000307
306,22.0,hard,control,Experiment 2 (test preview),9,hidden,2.0,,,,1.0,ba,ab,ab,ab,1.0,3058.551999994088
306,22.0,hard,control,Experiment 2 (test preview),10,hidden,1.0,,,,2.0,ab,ba,ba,ba,1.0,2414.211999997031
306,22.0,hard,control,Experiment 2 (test preview),11,visible,2.0,a,2.0,,1.0,a,b,b,b,1.0,981.5649999910966
306,22.0,hard,control,Experiment 2 (test preview),12,hidden,0.0,,,,3.0,aa,ab,ab,ab,1.0,6928.042999991099
306,22.0,hard,control,Experiment 2 (test preview),13,visible,2.0,b,1.0,,0.0,a,b,a,a,1.0,1547.329000000027
306,22.0,hard,control,Experiment 2 (test preview),14,hidden,1.0,,,,0.0,aa,bb,aa,bb,0.0,1926.0520000000247
306,22.0,hard,control,Experiment 2 (test preview),15,hidden,2.0,,,,3.0,ba,ab,ba,ab,0.0,1916.3359999910465
306,22.0,hard,control,Experiment 2 (test preview),16,visible,3.0,b,2.0,,1.0,a,b,b,b,1.0,1394.0479999999516
306,22.0,hard,control,Experiment 2 (test preview),17,hidden,0.0,,,,0.0,aa,bb,aa,aa,1.0,5169.017999988049
306,22.0,hard,control,Experiment 2 (test preview),18,hidden,1.0,,,,3.0,ab,ba,ab,ab,1.0,2829.540999997058
306,22.0,hard,control,Experiment 2 (test preview),19,visible,2.0,a,2.0,,0.0,a,b,b,b,1.0,1759.5230000000447
306,22.0,hard,control,Experiment 2 (test preview),20,hidden,1.0,,,,3.0,aa,ba,aa,ba,0.0,3171.211999994004
307,21.0,easy,control,Experiment 2 (test preview),1,hidden,2.0,,,,3.0,aa,ab,ab,aa,0.0,6355.840000000026
307,21.0,easy,control,Experiment 2 (test preview),2,hidden,0.0,,,,2.0,aa,bb,bb,aa,0.0,10278.659999999974
307,21.0,easy,control,Experiment 2 (test preview),3,visible,2.0,b,2.0,,2.0,a,b,b,b,1.0,5203.659999999974
307,21.0,easy,control,Experiment 2 (test preview),4,hidden,0.0,,,,0.0,aa,ab,aa,aa,1.0,872.859999999986
307,21.0,easy,control,Experiment 2 (test preview),5,visible,2.0,a,3.0,,1.0,a,b,a,a,1.0,4166.200000000012
307,21.0,easy,control,Experiment 2 (test preview),6,hidden,2.0,,,,1.0,ab,aa,aa,aa,1.0,4101.840000000026
307,21.0,easy,control,Experiment 2 (test preview),7,visible,0.0,b,2.0,,3.0,a,b,a,b,0.0,4197.599999999977
307,21.0,easy,control,Experiment 2 (test preview),8,hidden,3.0,,,,3.0,bb,ba,bb,bb,1.0,4620.219999999972
307,21.0,easy,control,Experiment 2 (test preview),9,hidden,3.0,,,,2.0,ab,ba,ab,ba,0.0,10175.400000000023
307,21.0,easy,control,Experiment 2 (test preview),10,visible,2.0,a,3.0,,3.0,a,b,b,a,0.0,6108.260000000009
307,21.0,easy,control,Experiment 2 (test preview),11,hidden,3.0,,,,1.0,aa,ba,ba,aa,0.0,5025.039999999979
307,21.0,easy,control,Experiment 2 (test preview),12,visible,0.0,b,2.0,,2.0,a,b,b,b,1.0,3050.1599999999744
307,21.0,easy,control,Experiment 2 (test preview),13,visible,0.0,a,2.0,,2.0,a,b,b,a,0.0,5440.239999999991
307,21.0,easy,control,Experiment 2 (test preview),14,hidden,2.0,,,,2.0,aa,bb,bb,bb,1.0,6487.599999999977
307,21.0,easy,control,Experiment 2 (test preview),15,visible,3.0,b,3.0,,0.0,a,b,a,a,1.0,3816.760000000009
307,21.0,easy,control,Experiment 2 (test preview),16,hidden,3.0,,,,2.0,aa,bb,aa,aa,1.0,9459.03999999998
307,21.0,easy,control,Experiment 2 (test preview),17,visible,3.0,b,3.0,,3.0,a,b,b,b,1.0,2101.8400000000256
307,21.0,easy,control,Experiment 2 (test preview),18,hidden,0.0,,,,3.0,ab,aa,aa,ab,0.0,6759.659999999974
307,21.0,easy,control,Experiment 2 (test preview),19,visible,0.0,a,2.0,,3.0,a,b,a,b,0.0,9622.46000000002
307,21.0,easy,control,Experiment 2 (test preview),20,visible,0.0,a,2.0,,0.0,a,b,a,a,1.0,7395.280000000028
314,21.0,easy,control,Experiment 2 (test preview),1,visible,2.0,a,3.0,,3.0,a,b,b,b,1.0,11481.0
314,21.0,easy,control,Experiment 2 (test preview),2,hidden,0.0,,,,0.0,aa,ab,aa,aa,1.0,3040.0
314,21.0,easy,control,Experiment 2 (test preview),3,visible,3.0,b,3.0,,0.0,a,b,a,a,1.0,2860.0
314,21.0,easy,control,Experiment 2 (test preview),4,hidden,3.0,,,,3.0,bb,ba,bb,bb,1.0,14476.0
314,21.0,easy,control,Experiment 2 (test preview),5,hidden,0.0,,,,3.0,ab,aa,aa,aa,1.0,15798.0
314,21.0,easy,control,Experiment 2 (test preview),6,hidden,3.0,,,,2.0,ab,ba,ab,ba,0.0,1526.0
314,21.0,easy,control,Experiment 2 (test preview),7,hidden,0.0,,,,2.0,aa,bb,bb,bb,1.0,1182.0
314,21.0,easy,control,Experiment 2 (test preview),8,visible,0.0,b,2.0,,2.0,a,b,b,a,0.0,6491.0
314,21.0,easy,control,Experiment 2 (test preview),9,visible,0.0,a,2.0,,3.0,a,b,a,b,0.0,3360.0
314,21.0,easy,control,Experiment 2 (test preview),10,visible,3.0,b,3.0,,3.0,a,b,b,a,0.0,918.0
314,21.0,easy,control,Experiment 2 (test preview),11,visible,0.0,b,2.0,,3.0,a,b,a,a,1.0,1892.0
314,21.0,easy,control,Experiment 2 (test preview),12,hidden,2.0,,,,1.0,ab,aa,aa,aa,1.0,1210.0
314,21.0,easy,control,Experiment 2 (test preview),13,hidden,3.0,,,,2.0,aa,bb,aa,bb,0.0,789.0
314,21.0,easy,control,Experiment 2 (test preview),14,visible,0.0,a,2.0,,2.0,a,b,b,b,1.0,1419.0
314,21.0,easy,control,Experiment 2 (test preview),15,hidden,2.0,,,,2.0,aa,bb,bb,bb,1.0,1951.0
314,21.0,easy,control,Experiment 2 (test preview),16,visible,2.0,a,3.0,,1.0,a,b,a,a,1.0,765.0
314,21.0,easy,control,Experiment 2 (test preview),17,visible,0.0,a,2.0,,0.0,a,b,a,a,1.0,884.0
314,21.0,easy,control,Experiment 2 (test preview),18,hidden,3.0,,,,1.0,aa,ba,ba,ba,1.0,2297.0
314,21.0,easy,control,Experiment 2 (test preview),19,hidden,2.0,,,,3.0,aa,ab,ab,aa,0.0,3723.0
314,21.0,easy,control,Experiment 2 (test preview),20,visible,2.0,b,2.0,,2.0,a,b,b,b,1.0,869.0
319,22.0,hard,control,Experiment 2 (test preview),1,visible,1.0,b,1.0,,3.0,a,b,b,a,0.0,7409.760000000009
319,22.0,hard,control,Experiment 2 (test preview),2,hidden,2.0,,,,3.0,ba,ab,ba,ba,1.0,11495.679999999991
319,22.0,hard,control,Experiment 2 (test preview),3,visible,3.0,b,2.0,,1.0,a,b,b,b,1.0,3907.9400000000014
319,22.0,hard,control,Experiment 2 (test preview),4,hidden,1.0,,,,3.0,ab,ba,ab,ab,1.0,7545.280000000028
319,22.0,hard,control,Experiment 2 (test preview),5,visible,2.0,a,2.0,,2.0,a,b,a,a,1.0,595.5
319,22.0,hard,control,Experiment 2 (test preview),6,hidden,1.0,,,,2.0,ab,ba,ba,ba,1.0,3990.3400000000256
319,22.0,hard,control,Experiment 2 (test preview),7,hidden,3.0,,,,1.0,ba,bb,bb,bb,1.0,3342.6599999999744
319,22.0,hard,control,Experiment 2 (test preview),8,hidden,0.0,,,,0.0,aa,bb,aa,bb,0.0,3062.0800000000163
319,22.0,hard,control,Experiment 2 (test preview),9,hidden,0.0,,,,3.0,aa,ab,ab,ab,1.0,6442.520000000019
319,22.0,hard,control,Experiment 2 (test preview),10,visible,2.0,a,2.0,,0.0,a,b,b,b,1.0,2265.7399999999907
319,22.0,hard,control,Experiment 2 (test preview),11,hidden,1.0,,,,3.0,aa,ba,aa,aa,1.0,10305.719999999972
319,22.0,hard,control,Experiment 2 (test preview),12,hidden,1.0,,,,0.0,aa,bb,aa,aa,1.0,2430.5200000000186
319,22.0,hard,control,Experiment 2 (test preview),13,visible,2.0,a,2.0,,1.0,a,b,b,b,1.0,1131.7000000000116
319,22.0,hard,control,Experiment 2 (test preview),14,visible,0.0,a,3.0,,0.0,a,b,a,a,1.0,5039.219999999972
319,22.0,hard,control,Experiment 2 (test preview),15,hidden,2.0,,,,1.0,ba,ab,ab,ab,1.0,6558.940000000002
319,22.0,hard,control,Experiment 2 (test preview),16,visible,3.0,a,2.0,,2.0,a,b,a,a,1.0,1571.679999999993
319,22.0,hard,control,Experiment 2 (test preview),17,hidden,3.0,,,,3.0,aa,ba,aa,ba,0.0,764.9000000000233
319,22.0,hard,control,Experiment 2 (test preview),18,visible,0.0,b,3.0,,3.0,a,b,b,b,1.0,1638.2999999999884
319,22.0,hard,control,Experiment 2 (test preview),19,visible,2.0,b,1.0,,0.0,a,b,a,b,0.0,2955.919999999984
319,22.0,hard,control,Experiment 2 (test preview),20,visible,1.0,a,1.0,,0.0,a,b,a,a,1.0,8503.940000000002
320,22.0,hard,control,Experiment 2 (test preview),1,hidden,0.0,,,,0.0,aa,bb,aa,bb,0.0,3129.732000005956
320,22.0,hard,control,Experiment 2 (test preview),2,hidden,0.0,,,,3.0,aa,ab,ab,aa,0.0,4237.878000000026
320,22.0,hard,control,Experiment 2 (test preview),3,visible,2.0,a,2.0,,2.0,a,b,a,a,1.0,2337.338000008953
320,22.0,hard,control,Experiment 2 (test preview),4,hidden,1.0,,,,3.0,aa,ba,aa,aa,1.0,9273.418000000003
320,22.0,hard,control,Experiment 2 (test preview),5,hidden,1.0,,,,3.0,ab,ba,ab,ab,1.0,3017.073000008939
320,22.0,hard,control,Experiment 2 (test preview),6,visible,2.0,a,2.0,,0.0,a,b,b,b,1.0,2977.7640000029933
320,22.0,hard,control,Experiment 2 (test preview),7,visible,1.0,b,1.0,,3.0,a,b,b,b,1.0,6456.370000008959
320,22.0,hard,control,Experiment 2 (test preview),8,visible,2.0,b,1.0,,0.0,a,b,a,a,1.0,2231.942000008945
320,22.0,hard,control,Experiment 2 (test preview),9,visible,0.0,a,3.0,,0.0,a,b,a,a,1.0,2974.759000008926
320,22.0,hard,control,Experiment 2 (test preview),10,hidden,1.0,,,,2.0,ab,ba,ba,ba,1.0,2530.90800000896
320,22.0,hard,control,Experiment 2 (test preview),11,hidden,2.0,,,,3.0,ba,ab,ba,ab,0.0,4551.39700001193
320,22.0,hard,control,Experiment 2 (test preview),12,visible,3.0,a,2.0,,2.0,a,b,a,a,1.0,1343.1460000089137
320,22.0,hard,control,Experiment 2 (test preview),13,visible,3.0,b,2.0,,1.0,a,b,b,b,1.0,1821.7689999999711
320,22.0,hard,control,Experiment 2 (test preview),14,hidden,2.0,,,,1.0,ba,ab,ab,ab,1.0,4574.165000005974
320,22.0,hard,control,Experiment 2 (test preview),15,hidden,1.0,,,,0.0,aa,bb,aa,aa,1.0,2096.6830000059563
320,22.0,hard,control,Experiment 2 (test preview),16,visible,1.0,a,1.0,,0.0,a,b,a,b,0.0,4720.521000000008
320,22.0,hard,control,Experiment 2 (test preview),17,visible,0.0,b,3.0,,3.0,a,b,b,b,1.0,2978.2399999999907
320,22.0,hard,control,Experiment 2 (test preview),18,visible,2.0,a,2.0,,1.0,a,b,b,b,1.0,382.8630000119447
320,22.0,hard,control,Experiment 2 (test preview),19,hidden,3.0,,,,1.0,ba,bb,bb,bb,1.0,2037.859000002965
320,22.0,hard,control,Experiment 2 (test preview),20,hidden,3.0,,,,3.0,aa,ba,aa,aa,1.0,1452.3950000059558
321,22.0,hard,control,Experiment 2 (test preview),1,hidden,3.0,,,,1.0,ba,bb,bb,ba,0.0,5232.899000000005
321,22.0,hard,control,Experiment 2 (test preview),2,visible,3.0,a,2.0,,2.0,a,b,a,a,1.0,614.5689999999886
321,22.0,hard,control,Experiment 2 (test preview),3,hidden,1.0,,,,0.0,aa,bb,aa,bb,0.0,5258.023999976169
321,22.0,hard,control,Experiment 2 (test preview),4,visible,2.0,a,2.0,,1.0,a,b,b,b,1.0,665.3289999523258
321,22.0,hard,control,Experiment 2 (test preview),5,visible,1.0,a,1.0,,0.0,a,b,a,a,1.0,1464.2889999523177
321,22.0,hard,control,Experiment 2 (test preview),6,hidden,3.0,,,,3.0,aa,ba,aa,aa,1.0,1248.546999988088
321,22.0,hard,control,Experiment 2 (test preview),7,visible,2.0,a,2.0,,2.0,a,b,a,a,1.0,465.0489999999991
321,22.0,hard,control,Experiment 2 (test preview),8,visible,3.0,b,2.0,,1.0,a,b,b,b,1.0,4454.076999976154
321,22.0,hard,control,Experiment 2 (test preview),9,visible,0.0,a,3.0,,0.0,a,b,a,a,1.0,2179.9599999880884
321,22.0,hard,control,Experiment 2 (test preview),10,hidden,1.0,,,,3.0,aa,ba,aa,ba,0.0,2508.659999988071
321,22.0,hard,control,Experiment 2 (test preview),11,hidden,1.0,,,,3.0,ab,ba,ab,ba,0.0,2013.598999964248
321,22.0,hard,control,Experiment 2 (test preview),12,hidden,2.0,,,,3.0,ba,ab,ba,ab,0.0,1166.0549999642535
321,22.0,hard,control,Experiment 2 (test preview),13,visible,2.0,a,2.0,,0.0,a,b,b,b,1.0,2617.544999999984
321,22.0,hard,control,Experiment 2 (test preview),14,visible,1.0,b,1.0,,3.0,a,b,b,a,0.0,583.3159999761847
321,22.0,hard,control,Experiment 2 (test preview),15,visible,0.0,b,3.0,,3.0,a,b,b,b,1.0,1756.9889999880688
321,22.0,hard,control,Experiment 2 (test preview),16,hidden,1.0,,,,2.0,ab,ba,ba,ba,1.0,1324.0849999642232
321,22.0,hard,control,Experiment 2 (test preview),17,hidden,2.0,,,,1.0,ba,ab,ab,ab,1.0,1083.723999964248
321,22.0,hard,control,Experiment 2 (test preview),18,hidden,0.0,,,,3.0,aa,ab,ab,aa,0.0,3204.0229999999865
321,22.0,hard,control,Experiment 2 (test preview),19,visible,2.0,b,1.0,,0.0,a,b,a,a,1.0,657.54299997614
321,22.0,hard,control,Experiment 2 (test preview),20,hidden,0.0,,,,0.0,aa,bb,aa,bb,0.0,528.5589999523363
325,21.0,easy,control,Experiment 2 (test preview),1,hidden,0.0,,,,0.0,aa,ab,aa,aa,1.0,8869.478000000003
325,21.0,easy,control,Experiment 2 (test preview),2,visible,2.0,a,3.0,,1.0,a,b,a,a,1.0,3924.618999976141
325,21.0,easy,control,Experiment 2 (test preview),3,visible,3.0,b,3.0,,0.0,a,b,a,a,1.0,5089.68999998807
325,21.0,easy,control,Experiment 2 (test preview),4,visible,0.0,b,2.0,,2.0,a,b,b,b,1.0,1318.2590000118944
325,21.0,easy,control,Experiment 2 (test preview),5,hidden,2.0,,,,2.0,aa,bb,bb,bb,1.0,3135.254000000016
325,21.0,easy,control,Experiment 2 (test preview),6,visible,0.0,a,2.0,,2.0,a,b,b,b,1.0,3149.068000023836
325,21.0,easy,control,Experiment 2 (test preview),7,visible,2.0,a,3.0,,3.0,a,b,b,a,0.0,5569.3260000119335
325,21.0,easy,control,Experiment 2 (test preview),8,visible,3.0,b,3.0,,3.0,a,b,b,b,1.0,7311.466000023822
325,21.0,easy,control,Experiment 2 (test preview),9,hidden,3.0,,,,3.0,bb,ba,bb,ba,0.0,8321.699000011897
325,21.0,easy,control,Experiment 2 (test preview),10,hidden,0.0,,,,3.0,ab,aa,aa,aa,1.0,7407.425000011921
325,21.0,easy,control,Experiment 2 (test preview),11,hidden,2.0,,,,3.0,aa,ab,ab,aa,0.0,5278.32300002384
325,21.0,easy,control,Experiment 2 (test preview),12,visible,0.0,a,2.0,,0.0,a,b,a,a,1.0,3549.450000000012
325,21.0,easy,control,Experiment 2 (test preview),13,visible,2.0,b,2.0,,2.0,a,b,b,b,1.0,1466.165999988094
325,21.0,easy,control,Experiment 2 (test preview),14,hidden,3.0,,,,1.0,aa,ba,ba,ba,1.0,15691.060000023863
325,21.0,easy,control,Experiment 2 (test preview),15,visible,0.0,b,2.0,,3.0,a,b,a,a,1.0,3437.6389999761595
325,21.0,easy,control,Experiment 2 (test preview),16,hidden,3.0,,,,2.0,ab,ba,ab,ab,1.0,5896.755999999994
325,21.0,easy,control,Experiment 2 (test preview),17,hidden,0.0,,,,2.0,aa,bb,bb,bb,1.0,5039.200000000012
325,21.0,easy,control,Experiment 2 (test preview),18,visible,0.0,a,2.0,,3.0,a,b,a,a,1.0,2418.0740000000224
325,21.0,easy,control,Experiment 2 (test preview),19,hidden,3.0,,,,2.0,aa,bb,aa,bb,0.0,2718.489999988058
325,21.0,easy,control,Experiment 2 (test preview),20,hidden,2.0,,,,1.0,ab,aa,aa,aa,1.0,4165.314999976137
326,21.0,easy,control,Experiment 2 (test preview),1,hidden,3.0,,,,1.0,aa,ba,ba,aa,0.0,10597.002000047709
326,21.0,easy,control,Experiment 2 (test preview),2,hidden,0.0,,,,0.0,aa,ab,aa,aa,1.0,2540.275000047696
326,21.0,easy,control,Experiment 2 (test preview),3,visible,0.0,a,2.0,,0.0,a,b,a,a,1.0,9149.916999904612
326,21.0,easy,control,Experiment 2 (test preview),4,hidden,0.0,,,,2.0,aa,bb,bb,bb,1.0,2031.5350000953767
326,21.0,easy,control,Experiment 2 (test preview),5,visible,2.0,b,2.0,,2.0,a,b,b,b,1.0,1867.4569999046507
326,21.0,easy,control,Experiment 2 (test preview),6,hidden,0.0,,,,3.0,ab,aa,aa,ab,0.0,3893.746999952302
326,21.0,easy,control,Experiment 2 (test preview),7,visible,0.0,b,2.0,,3.0,a,b,a,a,1.0,1864.4430000477005
326,21.0,easy,control,Experiment 2 (test preview),8,visible,0.0,b,2.0,,2.0,a,b,b,b,1.0,1189.7699999522883
326,21.0,easy,control,Experiment 2 (test preview),9,hidden,3.0,,,,2.0,ab,ba,ab,ba,0.0,14478.957999952312
326,21.0,easy,control,Experiment 2 (test preview),10,visible,2.0,a,3.0,,1.0,a,b,a,a,1.0,3824.0639999046102
326,21.0,easy,control,Experiment 2 (test preview),11,hidden,3.0,,,,2.0,aa,bb,aa,bb,0.0,1156.423999999999
326,21.0,easy,control,Experiment 2 (test preview),12,visible,0.0,a,2.0,,2.0,a,b,b,b,1.0,691.0229999999865
326,21.0,easy,control,Experiment 2 (test preview),13,visible,2.0,a,3.0,,3.0,a,b,b,a,0.0,1573.891000047675
326,21.0,easy,control,Experiment 2 (test preview),14,hidden,3.0,,,,3.0,bb,ba,bb,ba,0.0,16970.665999952296
326,21.0,easy,control,Experiment 2 (test preview),15,hidden,2.0,,,,2.0,aa,bb,bb,bb,1.0,919.5389999523176
326,21.0,easy,control,Experiment 2 (test preview),16,visible,0.0,a,2.0,,3.0,a,b,a,a,1.0,1032.3829999523005
326,21.0,easy,control,Experiment 2 (test preview),17,hidden,2.0,,,,3.0,aa,ab,ab,ab,1.0,4927.277999952319
326,21.0,easy,control,Experiment 2 (test preview),18,visible,3.0,b,3.0,,3.0,a,b,b,a,0.0,1040.516000047675
326,21.0,easy,control,Experiment 2 (test preview),19,visible,3.0,b,3.0,,0.0,a,b,a,a,1.0,686.7769999046577
326,21.0,easy,control,Experiment 2 (test preview),20,hidden,2.0,,,,1.0,ab,aa,aa,aa,1.0,3250.2789999046363
123,21.0,easy,control,Experiment 2 (test preview),1,hidden,0.0,,,,2.0,aa,bb,bb,bb,1.0,2986.707999976148
123,21.0,easy,control,Experiment 2 (test preview),2,hidden,0.0,,,,0.0,aa,ab,aa,aa,1.0,1764.046000000002
123,21.0,easy,control,Experiment 2 (test preview),3,visible,3.0,b,3.0,,3.0,a,b,b,b,1.0,1969.4859999761684
123,21.0,easy,control,Experiment 2 (test preview),4,visible,0.0,b,2.0,,3.0,a,b,a,a,1.0,802.690999964223
123,21.0,easy,control,Experiment 2 (test preview),5,hidden,0.0,,,,3.0,ab,aa,aa,aa,1.0,2669.722999976162
123,21.0,easy,control,Experiment 2 (test preview),6,hidden,3.0,,,,1.0,aa,ba,ba,aa,0.0,1465.280999988085
123,21.0,easy,control,Experiment 2 (test preview),7,hidden,2.0,,,,2.0,aa,bb,bb,bb,1.0,562.314000000013
123,21.0,easy,control,Experiment 2 (test preview),8,visible,0.0,a,2.0,,2.0,a,b,b,b,1.0,1059.776000011916
123,21.0,easy,control,Experiment 2 (test preview),9,visible,2.0,a,3.0,,3.0,a,b,b,a,0.0,671.8210000119288
123,21.0,easy,control,Experiment 2 (test preview),10,visible,2.0,b,2.0,,2.0,a,b,b,b,1.0,816.65099998808
123,21.0,easy,control,Experiment 2 (test preview),11,hidden,2.0,,,,1.0,ab,aa,aa,aa,1.0,1626.0659999761556
123,21.0,easy,control,Experiment 2 (test preview),12,visible,0.0,a,2.0,,0.0,a,b,a,a,1.0,1452.6399999880814
123,21.0,easy,control,Experiment 2 (test preview),13,hidden,2.0,,,,3.0,aa,ab,ab,aa,0.0,2109.47499997617
123,21.0,easy,control,Experiment 2 (test preview),14,visible,0.0,a,2.0,,3.0,a,b,a,b,0.0,2519.2559999642544
123,21.0,easy,control,Experiment 2 (test preview),15,hidden,3.0,,,,2.0,ab,ba,ab,ab,1.0,1968.895000011893
123,21.0,easy,control,Experiment 2 (test preview),16,visible,2.0,a,3.0,,1.0,a,b,a,a,1.0,511.9329999642214
123,21.0,easy,control,Experiment 2 (test preview),17,visible,3.0,b,3.0,,0.0,a,b,a,a,1.0,652.8979999999865
123,21.0,easy,control,Experiment 2 (test preview),18,hidden,3.0,,,,3.0,bb,ba,bb,bb,1.0,2479.4459999999963
123,21.0,easy,control,Experiment 2 (test preview),19,hidden,3.0,,,,2.0,aa,bb,aa,bb,0.0,708.3470000119414
123,21.0,easy,control,Experiment 2 (test preview),20,visible,0.0,b,2.0,,2.0,a,b,b,b,1.0,588.1409999761381
124,21.0,easy,control,Experiment 2 (test preview),1,hidden,2.0,,,,2.0,aa,bb,bb,bb,1.0,9922.128999988085
124,21.0,easy,control,Experiment 2 (test preview),2,visible,0.0,a,2.0,,3.0,a,b,a,a,1.0,2600.887000023853
124,21.0,easy,control,Experiment 2 (test preview),3,hidden,2.0,,,,3.0,aa,ab,ab,ab,1.0,3476.073000000004
124,21.0,easy,control,Experiment 2 (test preview),4,hidden,2.0,,,,1.0,ab,aa,aa,ab,0.0,2588.877000023844
124,21.0,easy,control,Experiment 2 (test preview),5,visible,0.0,b,2.0,,2.0,a,b,b,b,1.0,5952.642000011925
124,21.0,easy,control,Experiment 2 (test preview),6,hidden,3.0,,,,3.0,bb,ba,bb,bb,1.0,4590.173999976134
124,21.0,easy,control,Experiment 2 (test preview),7,visible,0.0,a,2.0,,0.0,a,b,a,a,1.0,3474.1869999761693
124,21.0,easy,control,Experiment 2 (test preview),8,visible,2.0,b,2.0,,2.0,a,b,b,b,1.0,1338.8120000119088
124,21.0,easy,control,Experiment 2 (test preview),9,visible,3.0,b,3.0,,0.0,a,b,a,a,1.0,1064.7479999880888
124,21.0,easy,control,Experiment 2 (test preview),10,hidden,0.0,,,,2.0,aa,bb,bb,aa,0.0,1513.4479999881005
124,21.0,easy,control,Experiment 2 (test preview),11,visible,0.0,b,2.0,,3.0,a,b,a,b,0.0,1807.9810000000289
124,21.0,easy,control,Experiment 2 (test preview),12,hidden,0.0,,,,0.0,aa,ab,aa,ab,0.0,5243.438000023831
124,21.0,easy,control,Experiment 2 (test preview),13,visible,2.0,a,3.0,,3.0,a,b,b,b,1.0,3493.697000011918
124,21.0,easy,control,Experiment 2 (test preview),14,hidden,3.0,,,,2.0,ab,ba,ab,ba,0.0,2061.445000000007
124,21.0,easy,control,Experiment 2 (test preview),15,hidden,3.0,,,,1.0,aa,ba,ba,aa,0.0,998.2069999999948
124,21.0,easy,control,Experiment 2 (test preview),16,visible,0.0,a,2.0,,2.0,a,b,b,a,0.0,2249.4559999761404
124,21.0,easy,control,Experiment 2 (test preview),17,visible,3.0,b,3.0,,3.0,a,b,b,b,1.0,922.8399999761604
124,21.0,easy,control,Experiment 2 (test preview),18,hidden,0.0,,,,3.0,ab,aa,aa,ab,0.0,1305.487999976147
124,21.0,easy,control,Experiment 2 (test preview),19,visible,2.0,a,3.0,,1.0,a,b,a,a,1.0,768.7770000119344
124,21.0,easy,control,Experiment 2 (test preview),20,hidden,3.0,,,,2.0,aa,bb,aa,bb,0.0,933.5050000119372
125,21.0,easy,control,Experiment 2 (test preview),1,hidden,3.0,,,,3.0,bb,ba,bb,bb,1.0,6155.571999976179
125,21.0,easy,control,Experiment 2 (test preview),2,hidden,0.0,,,,3.0,ab,aa,aa,ab,0.0,7399.419999988051
125,21.0,easy,control,Experiment 2 (test preview),3,visible,2.0,b,2.0,,2.0,a,b,b,b,1.0,3502.805999982113
125,21.0,easy,control,Experiment 2 (test preview),4,visible,2.0,a,3.0,,1.0,a,b,a,a,1.0,5539.028999982111
125,21.0,easy,control,Experiment 2 (test preview),5,visible,0.0,b,2.0,,3.0,a,b,a,b,0.0,4068.121999976167
125,21.0,easy,control,Experiment 2 (test preview),6,hidden,0.0,,,,2.0,aa,bb,bb,aa,0.0,6840.372999976156
125,21.0,easy,control,Experiment 2 (test preview),7,visible,0.0,a,2.0,,2.0,a,b,b,a,0.0,3036.8369999761344
125,21.0,easy,control,Experiment 2 (test preview),8,visible,0.0,a,2.0,,0.0,a,b,a,a,1.0,3833.359999999986
125,21.0,easy,control,Experiment 2 (test preview),9,visible,3.0,b,3.0,,3.0,a,b,b,b,1.0,1379.670999976166
125,21.0,easy,control,Experiment 2 (test preview),10,hidden,3.0,,,,1.0,aa,ba,ba,ba,1.0,8821.670999999973
125,21.0,easy,control,Experiment 2 (test preview),11,hidden,3.0,,,,2.0,aa,bb,aa,aa,1.0,5421.086999976134
125,21.0,easy,control,Experiment 2 (test preview),12,hidden,2.0,,,,3.0,aa,ab,ab,ab,1.0,8839.452999988105
125,21.0,easy,control,Experiment 2 (test preview),13,visible,3.0,b,3.0,,0.0,a,b,a,a,1.0,2265.1609999940265
125,21.0,easy,control,Experiment 2 (test preview),14,visible,0.0,a,2.0,,3.0,a,b,a,a,1.0,2979.316999999981
125,21.0,easy,control,Experiment 2 (test preview),15,visible,0.0,b,2.0,,2.0,a,b,b,b,1.0,3442.1639999999898
125,21.0,easy,control,Experiment 2 (test preview),16,hidden,2.0,,,,1.0,ab,aa,aa,aa,1.0,7952.997999988089
125,21.0,easy,control,Experiment 2 (test preview),17,hidden,2.0,,,,2.0,aa,bb,bb,aa,0.0,2159.7119999940624
125,21.0,easy,control,Experiment 2 (test preview),18,hidden,3.0,,,,2.0,ab,ba,ab,ab,1.0,13065.484999982116
125,21.0,easy,control,Experiment 2 (test preview),19,hidden,0.0,,,,0.0,aa,ab,aa,aa,1.0,1859.236999982153
125,21.0,easy,control,Experiment 2 (test preview),20,visible,2.0,a,3.0,,3.0,a,b,b,a,0.0,1277.1230000000214
127,21.0,easy,control,Experiment 2 (test preview),1,visible,2.0,a,3.0,,3.0,a,b,b,a,0.0,6657.414000002958
127,21.0,easy,control,Experiment 2 (test preview),2,hidden,2.0,,,,3.0,aa,ab,ab,aa,0.0,6632.520000008924
127,21.0,easy,control,Experiment 2 (test preview),3,visible,2.0,b,2.0,,2.0,a,b,b,b,1.0,1455.0580000089249
127,21.0,easy,control,Experiment 2 (test preview),4,hidden,2.0,,,,2.0,aa,bb,bb,aa,0.0,4226.190000002971
127,21.0,easy,control,Experiment 2 (test preview),5,hidden,2.0,,,,1.0,ab,aa,aa,ab,0.0,3705.43900000595
127,21.0,easy,control,Experiment 2 (test preview),6,hidden,3.0,,,,2.0,aa,bb,aa,aa,1.0,6045.761000008963
127,21.0,easy,control,Experiment 2 (test preview),7,hidden,0.0,,,,0.0,aa,ab,aa,aa,1.0,3928.652000008966
127,21.0,easy,control,Experiment 2 (test preview),8,hidden,3.0,,,,2.0,ab,ba,ab,ba,0.0,4120.112000011897
127,21.0,easy,control,Experiment 2 (test preview),9,visible,2.0,a,3.0,,1.0,a,b,a,b,0.0,3884.084000011906
127,21.0,easy,control,Experiment 2 (test preview),10,hidden,3.0,,,,1.0,aa,ba,ba,ba,1.0,5177.492000011902
127,21.0,easy,control,Experiment 2 (test preview),11,visible,0.0,b,2.0,,2.0,a,b,b,b,1.0,1975.49600000598
127,21.0,easy,control,Experiment 2 (test preview),12,visible,3.0,b,3.0,,0.0,a,b,a,a,1.0,1610.016000002972
127,21.0,easy,control,Experiment 2 (test preview),13,visible,0.0,a,2.0,,0.0,a,b,a,a,1.0,995.4220000089264
127,21.0,easy,control,Experiment 2 (test preview),14,visible,0.0,a,2.0,,2.0,a,b,b,b,1.0,1033.3360000000102
127,21.0,easy,control,Experiment 2 (test preview),15,visible,3.0,b,3.0,,3.0,a,b,b,b,1.0,786.1900000000023
127,21.0,easy,control,Experiment 2 (test preview),16,hidden,3.0,,,,3.0,bb,ba,bb,bb,1.0,840.8960000029765
127,21.0,easy,control,Experiment 2 (test preview),17,hidden,0.0,,,,2.0,aa,bb,bb,aa,0.0,3889.070000002976
127,21.0,easy,control,Experiment 2 (test preview),18,visible,0.0,b,2.0,,3.0,a,b,a,a,1.0,3944.309000000008
127,21.0,easy,control,Experiment 2 (test preview),19,hidden,0.0,,,,3.0,ab,aa,aa,aa,1.0,1246.7770000119344
127,21.0,easy,control,Experiment 2 (test preview),20,visible,0.0,a,2.0,,3.0,a,b,a,a,1.0,2085.80100001191
126,21.0,easy,control,Experiment 2 (test preview),1,hidden,3.0,,,,2.0,ab,ba,ab,ab,1.0,4994.0
126,21.0,easy,control,Experiment 2 (test preview),2,hidden,3.0,,,,2.0,aa,bb,aa,bb,0.0,1789.0
126,21.0,easy,control,Experiment 2 (test preview),3,hidden,3.0,,,,3.0,bb,ba,bb,ba,0.0,1948.0
126,21.0,easy,control,Experiment 2 (test preview),4,visible,2.0,a,3.0,,1.0,a,b,a,a,1.0,2194.000000000058
126,21.0,easy,control,Experiment 2 (test preview),5,hidden,2.0,,,,3.0,aa,ab,ab,aa,0.0,1531.0000000000582
126,21.0,easy,control,Experiment 2 (test preview),6,hidden,0.0,,,,0.0,aa,ab,aa,aa,1.0,2669.0
126,21.0,easy,control,Experiment 2 (test preview),7,hidden,0.0,,,,2.0,aa,bb,bb,bb,1.0,2004.0
126,21.0,easy,control,Experiment 2 (test preview),8,visible,0.0,a,2.0,,2.0,a,b,b,b,1.0,2387.0
126,21.0,easy,control,Experiment 2 (test preview),9,visible,3.0,b,3.0,,0.0,a,b,a,a,1.0,3937.0
126,21.0,easy,control,Experiment 2 (test preview),10,visible,2.0,b,2.0,,2.0,a,b,b,b,1.0,820.0
126,21.0,easy,control,Experiment 2 (test preview),11,visible,0.0,a,2.0,,3.0,a,b,a,a,1.0,2179.0
126,21.0,easy,control,Experiment 2 (test preview),12,visible,0.0,b,2.0,,2.0,a,b,b,b,1.0,751.0000000000582
126,21.0,easy,control,Experiment 2 (test preview),13,visible,0.0,a,2.0,,0.0,a,b,a,a,1.0,623.0
126,21.0,easy,control,Experiment 2 (test preview),14,hidden,3.0,,,,1.0,aa,ba,ba,aa,0.0,5646.000000000058
126,21.0,easy,control,Experiment 2 (test preview),15,visible,0.0,b,2.0,,3.0,a,b,a,a,1.0,931.0
126,21.0,easy,control,Experiment 2 (test preview),16,hidden,2.0,,,,2.0,aa,bb,bb,bb,1.0,2443.0
126,21.0,easy,control,Experiment 2 (test preview),17,visible,2.0,a,3.0,,3.0,a,b,b,a,0.0,1989.0
126,21.0,easy,control,Experiment 2 (test preview),18,visible,3.0,b,3.0,,3.0,a,b,b,a,0.0,1305.0
126,21.0,easy,control,Experiment 2 (test preview),19,hidden,2.0,,,,1.0,ab,aa,aa,aa,1.0,1709.9999999999418
126,21.0,easy,control,Experiment 2 (test preview),20,hidden,0.0,,,,3.0,ab,aa,aa,aa,1.0,2332.000000000058
128,21.0,easy,control,Experiment 2 (test preview),1,visible,0.0,b,2.0,,3.0,a,b,a,a,1.0,3212.8060000000114
128,21.0,easy,control,Experiment 2 (test preview),2,hidden,0.0,,,,3.0,ab,aa,aa,aa,1.0,5614.242000002967
128,21.0,easy,control,Experiment 2 (test preview),3,hidden,2.0,,,,3.0,aa,ab,ab,ab,1.0,6366.925999999978
128,21.0,easy,control,Experiment 2 (test preview),4,hidden,2.0,,,,2.0,aa,bb,bb,bb,1.0,2950.334000008937
128,21.0,easy,control,Experiment 2 (test preview),5,visible,0.0,a,2.0,,3.0,a,b,a,a,1.0,4030.598000008962
128,21.0,easy,control,Experiment 2 (test preview),6,visible,2.0,a,3.0,,3.0,a,b,b,b,1.0,7297.931000008946
128,21.0,easy,control,Experiment 2 (test preview),7,hidden,3.0,,,,2.0,aa,bb,aa,bb,0.0,7627.135000005946
128,21.0,easy,control,Experiment 2 (test preview),8,hidden,3.0,,,,2.0,ab,ba,ab,ab,1.0,7195.870000002964
128,21.0,easy,control,Experiment 2 (test preview),9,hidden,0.0,,,,0.0,aa,ab,aa,aa,1.0,1603.9320000119042
128,21.0,easy,control,Experiment 2 (test preview),10,visible,3.0,b,3.0,,3.0,a,b,b,a,0.0,1220.47600000893
128,21.0,easy,control,Experiment 2 (test preview),11,hidden,0.0,,,,2.0,aa,bb,bb,aa,0.0,2493.5690000000177
128,21.0,easy,control,Experiment 2 (test preview),12,visible,0.0,b,2.0,,2.0,a,b,b,b,1.0,4468.270000000019
128,21.0,easy,control,Experiment 2 (test preview),13,visible,3.0,b,3.0,,0.0,a,b,a,a,1.0,5380.921000008937
128,21.0,easy,control,Experiment 2 (test preview),14,visible,0.0,a,2.0,,0.0,a,b,a,a,1.0,2331.1450000000186
128,21.0,easy,control,Experiment 2 (test preview),15,hidden,3.0,,,,1.0,aa,ba,ba,aa,0.0,1633.672000002989
128,21.0,easy,control,Experiment 2 (test preview),16,hidden,3.0,,,,3.0,bb,ba,bb,ba,0.0,2410.206000011938
128,21.0,easy,control,Experiment 2 (test preview),17,visible,0.0,a,2.0,,2.0,a,b,b,b,1.0,2326.3740000000107
128,21.0,easy,control,Experiment 2 (test preview),18,hidden,2.0,,,,1.0,ab,aa,aa,aa,1.0,1240.7100000089267
128,21.0,easy,control,Experiment 2 (test preview),19,visible,2.0,a,3.0,,1.0,a,b,a,a,1.0,9367.083999999972
128,21.0,easy,control,Experiment 2 (test preview),20,visible,2.0,b,2.0,,2.0,a,b,b,b,1.0,2634.972000000009
129,21.0,easy,control,Experiment 2 (test preview),1,visible,2.0,a,3.0,,3.0,a,b,b,b,1.0,3009.7540000715526
129,21.0,easy,control,Experiment 2 (test preview),2,hidden,2.0,,,,1.0,ab,aa,aa,aa,1.0,9014.264000071504
129,21.0,easy,control,Experiment 2 (test preview),3,visible,2.0,b,2.0,,2.0,a,b,b,b,1.0,1975.9110000000217
129,21.0,easy,control,Experiment 2 (test preview),4,hidden,3.0,,,,2.0,ab,ba,ab,ab,1.0,4715.567000023846
129,21.0,easy,control,Experiment 2 (test preview),5,visible,0.0,a,2.0,,0.0,a,b,a,a,1.0,4317.508000023838
129,21.0,easy,control,Experiment 2 (test preview),6,visible,0.0,b,2.0,,2.0,a,b,b,b,1.0,1274.3340000238386
129,21.0,easy,control,Experiment 2 (test preview),7,visible,3.0,b,3.0,,0.0,a,b,a,a,1.0,3072.792000047688
129,21.0,easy,control,Experiment 2 (test preview),8,visible,0.0,a,2.0,,2.0,a,b,b,b,1.0,1220.3609999761684
129,21.0,easy,control,Experiment 2 (test preview),9,visible,0.0,b,2.0,,3.0,a,b,a,a,1.0,1633.536999976146
129,21.0,easy,control,Experiment 2 (test preview),10,hidden,3.0,,,,1.0,aa,ba,ba,aa,0.0,4293.27600007155
129,21.0,easy,control,Experiment 2 (test preview),11,hidden,0.0,,,,2.0,aa,bb,bb,bb,1.0,1709.2390000238663
129,21.0,easy,control,Experiment 2 (test preview),12,visible,3.0,b,3.0,,3.0,a,b,b,b,1.0,3193.1780000238214
129,21.0,easy,control,Experiment 2 (test preview),13,hidden,0.0,,,,0.0,aa,ab,aa,ab,0.0,6939.604000047664
129,21.0,easy,control,Experiment 2 (test preview),14,visible,0.0,a,2.0,,3.0,a,b,a,a,1.0,3541.3880000715144
129,21.0,easy,control,Experiment 2 (test preview),15,hidden,3.0,,,,2.0,aa,bb,aa,bb,0.0,2069.614000047673
129,21.0,easy,control,Experiment 2 (test preview),16,hidden,3.0,,,,3.0,bb,ba,bb,bb,1.0,2786.393999976164
129,21.0,easy,control,Experiment 2 (test preview),17,hidden,2.0,,,,3.0,aa,ab,ab,aa,0.0,4452.3670000477
129,21.0,easy,control,Experiment 2 (test preview),18,hidden,0.0,,,,3.0,ab,aa,aa,aa,1.0,2465.5230000476586
129,21.0,easy,control,Experiment 2 (test preview),19,visible,2.0,a,3.0,,1.0,a,b,a,a,1.0,2669.219000047655
129,21.0,easy,control,Experiment 2 (test preview),20,hidden,2.0,,,,2.0,aa,bb,bb,bb,1.0,1134.4010000476846
130,21.0,easy,control,Experiment 2 (test preview),1,visible,0.0,b,2.0,,2.0,a,b,b,b,1.0,647.6990000000224
130,21.0,easy,control,Experiment 2 (test preview),2,visible,2.0,b,2.0,,2.0,a,b,b,b,1.0,583.0430000119377
130,21.0,easy,control,Experiment 2 (test preview),3,visible,2.0,a,3.0,,3.0,a,b,b,b,1.0,2996.998999988078
130,21.0,easy,control,Experiment 2 (test preview),4,hidden,3.0,,,,3.0,bb,ba,bb,bb,1.0,1178.629000011948
130,21.0,easy,control,Experiment 2 (test preview),5,hidden,0.0,,,,3.0,ab,aa,aa,ab,0.0,4388.501999976113
130,21.0,easy,control,Experiment 2 (test preview),6,visible,0.0,a,2.0,,3.0,a,b,a,a,1.0,2060.246000011917
130,21.0,easy,control,Experiment 2 (test preview),7,visible,0.0,b,2.0,,3.0,a,b,a,a,1.0,1506.79399998812
130,21.0,easy,control,Experiment 2 (test preview),8,hidden,3.0,,,,2.0,ab,ba,ab,ba,0.0,4126.06499998807
130,21.0,easy,control,Experiment 2 (test preview),9,visible,0.0,a,2.0,,0.0,a,b,a,a,1.0,5949.046000011964
130,21.0,easy,control,Experiment 2 (test preview),10,hidden,2.0,,,,3.0,aa,ab,ab,ab,1.0,4546.051999988034
130,21.0,easy,control,Experiment 2 (test preview),11,hidden,0.0,,,,0.0,aa,ab,aa,ab,0.0,3545.957999999984
130,21.0,easy,control,Experiment 2 (test preview),12,hidden,2.0,,,,1.0,ab,aa,aa,aa,1.0,2690.167999988073
130,21.0,easy,control,Experiment 2 (test preview),13,hidden,2.0,,,,2.0,aa,bb,bb,bb,1.0,896.9759999642847
130,21.0,easy,control,Experiment 2 (test preview),14,visible,2.0,a,3.0,,1.0,a,b,a,a,1.0,783.2469999761088
130,21.0,easy,control,Experiment 2 (test preview),15,hidden,0.0,,,,2.0,aa,bb,bb,aa,0.0,1332.2099999642232
130,21.0,easy,control,Experiment 2 (test preview),16,visible,3.0,b,3.0,,0.0,a,b,a,a,1.0,7573.018999999971
130,21.0,easy,control,Experiment 2 (test preview),17,visible,0.0,a,2.0,,2.0,a,b,b,b,1.0,789.8629999642726
130,21.0,easy,control,Experiment 2 (test preview),18,hidden,3.0,,,,2.0,aa,bb,aa,aa,1.0,13964.410999976217
130,21.0,easy,control,Experiment 2 (test preview),19,visible,3.0,b,3.0,,3.0,a,b,b,b,1.0,608.1349999761442
130,21.0,easy,control,Experiment 2 (test preview),20,hidden,3.0,,,,1.0,aa,ba,ba,aa,0.0,3393.334999976214
131,21.0,easy,control,Experiment 2 (test preview),1,hidden,3.0,,,,2.0,ab,ba,ab,ab,1.0,7339.093000005989
131,21.0,easy,control,Experiment 2 (test preview),2,visible,2.0,a,3.0,,3.0,a,b,b,b,1.0,3322.1240000238176
131,21.0,easy,control,Experiment 2 (test preview),3,hidden,0.0,,,,3.0,ab,aa,aa,aa,1.0,2422.764000011899
131,21.0,easy,control,Experiment 2 (test preview),4,visible,3.0,b,3.0,,3.0,a,b,b,b,1.0,3739.141000011936
131,21.0,easy,control,Experiment 2 (test preview),5,hidden,3.0,,,,1.0,aa,ba,ba,ba,1.0,5655.415000011912
131,21.0,easy,control,Experiment 2 (test preview),6,hidden,0.0,,,,2.0,aa,bb,bb,aa,0.0,5289.715000005963
131,21.0,easy,control,Experiment 2 (test preview),7,visible,2.0,a,3.0,,1.0,a,b,a,a,1.0,2572.7080000238493
131,21.0,easy,control,Experiment 2 (test preview),8,hidden,2.0,,,,3.0,aa,ab,ab,ab,1.0,5638.940000000002
131,21.0,easy,control,Experiment 2 (test preview),9,hidden,0.0,,,,0.0,aa,ab,aa,aa,1.0,2988.529000011913
131,21.0,easy,control,Experiment 2 (test preview),10,visible,0.0,a,2.0,,3.0,a,b,a,a,1.0,3022.689000017883
131,21.0,easy,control,Experiment 2 (test preview),11,hidden,3.0,,,,3.0,bb,ba,bb,bb,1.0,2188.724000005983
131,21.0,easy,control,Experiment 2 (test preview),12,visible,0.0,a,2.0,,0.0,a,b,a,a,1.0,2389.2520000179065
131,21.0,easy,control,Experiment 2 (test preview),13,visible,0.0,b,2.0,,2.0,a,b,b,b,1.0,1572.085000000021
131,21.0,easy,control,Experiment 2 (test preview),14,hidden,2.0,,,,2.0,aa,bb,bb,bb,1.0,3539.2889999999898
131,21.0,easy,control,Experiment 2 (test preview),15,visible,2.0,b,2.0,,2.0,a,b,b,b,1.0,988.6170000178972
131,21.0,easy,control,Experiment 2 (test preview),16,hidden,2.0,,,,1.0,ab,aa,aa,aa,1.0,4856.096999999951
131,21.0,easy,control,Experiment 2 (test preview),17,visible,3.0,b,3.0,,0.0,a,b,a,a,1.0,2022.033000000054
131,21.0,easy,control,Experiment 2 (test preview),18,visible,0.0,a,2.0,,2.0,a,b,b,b,1.0,989.2550000000048
131,21.0,easy,control,Experiment 2 (test preview),19,hidden,3.0,,,,2.0,aa,bb,aa,aa,1.0,2105.5220000238623
131,21.0,easy,control,Experiment 2 (test preview),20,visible,0.0,b,2.0,,3.0,a,b,a,a,1.0,2289.2800000119023
132,21.0,easy,control,Experiment 2 (test preview),1,visible,0.0,a,2.0,,2.0,a,b,b,a,0.0,7550.082999999635
132,21.0,easy,control,Experiment 2 (test preview),2,hidden,2.0,,,,1.0,ab,aa,aa,ab,0.0,11173.086000000185
132,21.0,easy,control,Experiment 2 (test preview),3,visible,2.0,a,3.0,,1.0,a,b,a,b,0.0,4591.208999999799
132,21.0,easy,control,Experiment 2 (test preview),4,visible,0.0,a,2.0,,3.0,a,b,a,b,0.0,3815.7380000001863
132,21.0,easy,control,Experiment 2 (test preview),5,hidden,0.0,,,,2.0,aa,bb,bb,bb,1.0,10393.898999999976
132,21.0,easy,control,Experiment 2 (test preview),6,visible,3.0,b,3.0,,0.0,a,b,a,a,1.0,4712.909999999625
132,21.0,easy,control,Experiment 2 (test preview),7,hidden,2.0,,,,3.0,aa,ab,ab,ab,1.0,2215.298999999999
132,21.0,easy,control,Experiment 2 (test preview),8,visible,2.0,a,3.0,,3.0,a,b,b,a,0.0,2956.206999999413
132,21.0,easy,control,Experiment 2 (test preview),9,hidden,2.0,,,,2.0,aa,bb,bb,aa,0.0,4546.967999999819
