participant_id,fsm_number,fsm_type,test_order,test1,test2,test3,trial_number,trial_type,state_1,response_1,state_2,response_2,state_3,option_1,option_2,correctResponse,response,response_correct,response_time
1,21.0,easy,CEP,control,explanation,prediction,1,visible,0.0,a,2.0,,0.0,a,b,a,a,1.0,4168.052000000025
1,21.0,easy,CEP,control,explanation,prediction,2,visible,2.0,a,3.0,,1.0,a,b,a,a,1.0,1254.2599999761442
1,21.0,easy,CEP,control,explanation,prediction,3,visible,3.0,b,3.0,,3.0,a,b,b,b,1.0,1183.8789999761502
1,21.0,easy,CEP,control,explanation,prediction,4,visible,0.0,a,2.0,,3.0,a,b,a,a,1.0,3927.266999964253
1,21.0,easy,CEP,control,explanation,prediction,5,visible,0.0,b,2.0,,3.0,a,b,a,a,1.0,3914.230999964231
1,21.0,easy,CEP,control,explanation,prediction,1,hidden,0.0,,,,0.0,aa,ab,aa,aa,1.0,8306.210999964213
1,21.0,easy,CEP,control,explanation,prediction,2,hidden,3.0,,,,2.0,aa,bb,aa,aa,1.0,6690.715999964217
1,21.0,easy,CEP,control,explanation,prediction,3,hidden,3.0,,,,3.0,bb,ba,bb,bb,1.0,2690.350999952294
1,21.0,easy,CEP,control,explanation,prediction,4,hidden,3.0,,,,2.0,ab,ba,ab,ab,1.0,3609.0269999761367
1,21.0,easy,CEP,control,explanation,prediction,5,hidden,2.0,,,,1.0,ab,aa,aa,aa,1.0,4261.358999952325
1,21.0,easy,CEP,control,explanation,prediction,1,visible,0.0,a,2.0,a,0.0,,,2,1,0.0,5658.98699998809
1,21.0,easy,CEP,control,explanation,prediction,2,visible,3.0,a,1.0,a,0.0,,,1,2,0.0,1434.9349999523256
1,21.0,easy,CEP,control,explanation,prediction,3,visible,0.0,b,2.0,b,2.0,,,2,2,1.0,5212.908999976178
1,21.0,easy,CEP,control,explanation,prediction,4,visible,0.0,b,2.0,a,3.0,,,2,1,0.0,5758.021999999997
1,21.0,easy,CEP,control,explanation,prediction,5,visible,0.0,b,2.0,a,0.0,,,2,2,1.0,4730.939999976137
1,21.0,easy,CEP,control,explanation,prediction,1,hidden,3.0,b,,a,0.0,,,2,2,1.0,3844.0739999642246
1,21.0,easy,CEP,control,explanation,prediction,2,hidden,0.0,a,,a,0.0,,,2,2,1.0,1484.960000000021
1,21.0,easy,CEP,control,explanation,prediction,3,hidden,3.0,a,,b,2.0,,,1,2,0.0,732.0399999761721
1,21.0,easy,CEP,control,explanation,prediction,4,hidden,3.0,a,,a,2.0,,,1,2,0.0,596.1899999761372
1,21.0,easy,CEP,control,explanation,prediction,5,hidden,2.0,b,,b,2.0,,,2,2,1.0,1986.2139999761712
1,21.0,easy,CEP,control,explanation,prediction,1,visible,2.0,b,2.0,a,,1,3,3,3,1.0,2915.092999988061
1,21.0,easy,CEP,control,explanation,prediction,2,visible,3.0,a,1.0,a,,0,1,0,0,1.0,1774.50900000002
1,21.0,easy,CEP,control,explanation,prediction,3,visible,3.0,b,3.0,b,,1,3,3,3,1.0,1081.1869999523042
1,21.0,easy,CEP,control,explanation,prediction,4,visible,3.0,a,1.0,b,,3,0,0,3,0.0,7155.414999976172
1,21.0,easy,CEP,control,explanation,prediction,5,visible,1.0,a,0.0,a,,2,0,2,0,0.0,5198.712999976182
1,21.0,easy,CEP,control,explanation,prediction,1,hidden,3.0,a,,b,,2,1,2,2,1.0,2103.97499997617
1,21.0,easy,CEP,control,explanation,prediction,2,hidden,3.0,a,,a,,2,1,2,1,0.0,2844.1469999880646
1,21.0,easy,CEP,control,explanation,prediction,3,hidden,3.0,b,,a,,3,1,1,3,0.0,5010.305999988108
1,21.0,easy,CEP,control,explanation,prediction,4,hidden,2.0,a,,a,,3,1,1,3,0.0,4369.893999952357
1,21.0,easy,CEP,control,explanation,prediction,5,hidden,0.0,a,,a,,1,0,0,0,1.0,1352.9590000000317
2,21.0,easy,ECP,explanation,control,prediction,1,visible,2.0,a,0.0,b,2.0,,,1,2,0.0,7330.308999856963
2,21.0,easy,ECP,explanation,control,prediction,2,visible,0.0,a,2.0,b,2.0,,,2,2,1.0,3696.5439999999935
2,21.0,easy,ECP,explanation,control,prediction,3,visible,0.0,a,2.0,a,0.0,,,2,2,1.0,10634.045999856957
2,21.0,easy,ECP,explanation,control,prediction,4,visible,0.0,b,2.0,a,0.0,,,2,1,0.0,4221.446999809268
2,21.0,easy,ECP,explanation,control,prediction,5,visible,3.0,a,0.0,a,2.0,,,1,2,0.0,2484.2369998092763
2,21.0,easy,ECP,explanation,control,prediction,1,hidden,3.0,b,,a,0.0,,,2,1,0.0,10313.153999809265
2,21.0,easy,ECP,explanation,control,prediction,2,hidden,3.0,a,,b,2.0,,,1,2,0.0,6705.176000000007
2,21.0,easy,ECP,explanation,control,prediction,3,hidden,0.0,a,,a,3.0,,,2,2,1.0,9854.909000000014
2,21.0,easy,ECP,explanation,control,prediction,4,hidden,2.0,b,,b,2.0,,,2,2,1.0,1054.9349998092512
2,21.0,easy,ECP,explanation,control,prediction,5,hidden,3.0,a,,b,0.0,,,1,1,1.0,988.3309999046614
2,21.0,easy,ECP,explanation,control,prediction,1,visible,2.0,a,3.0,,3.0,a,b,b,a,0.0,5175.664999809291
2,21.0,easy,ECP,explanation,control,prediction,2,visible,3.0,b,3.0,,3.0,a,b,b,a,0.0,1746.7799999522977
2,21.0,easy,ECP,explanation,control,prediction,3,visible,0.0,a,2.0,,2.0,a,b,b,b,1.0,680.167999952333
2,21.0,easy,ECP,explanation,control,prediction,4,visible,0.0,b,2.0,,3.0,a,b,a,a,1.0,4563.768999856955
2,21.0,easy,ECP,explanation,control,prediction,5,visible,0.0,b,2.0,,2.0,a,b,b,b,1.0,1350.738999952329
2,21.0,easy,ECP,explanation,control,prediction,1,hidden,2.0,,,,1.0,ab,aa,aa,aa,1.0,2005.1729998092635
2,21.0,easy,ECP,explanation,control,prediction,2,hidden,0.0,,,,3.0,ab,aa,aa,ab,0.0,659.0250000000233
2,21.0,easy,ECP,explanation,control,prediction,3,hidden,0.0,,,,0.0,aa,ab,aa,ab,0.0,892.738999856927
2,21.0,easy,ECP,explanation,control,prediction,4,hidden,3.0,,,,1.0,aa,ba,ba,ba,1.0,2242.5629998569493
2,21.0,easy,ECP,explanation,control,prediction,5,hidden,3.0,,,,2.0,ab,ba,ab,ab,1.0,3503.219999999972
2,21.0,easy,ECP,explanation,control,prediction,1,visible,3.0,a,1.0,a,,0,1,0,1,0.0,1263.2539999523433
2,21.0,easy,ECP,explanation,control,prediction,2,visible,0.0,b,2.0,b,,2,3,2,3,0.0,825.845999809273
2,21.0,easy,ECP,explanation,control,prediction,3,visible,1.0,b,0.0,b,,2,1,2,1,0.0,2888.1959998092498
2,21.0,easy,ECP,explanation,control,prediction,4,visible,2.0,b,2.0,a,,1,3,3,1,0.0,6476.11899980926
2,21.0,easy,ECP,explanation,control,prediction,5,visible,3.0,b,3.0,b,,1,3,3,3,1.0,3092.526999809256
2,21.0,easy,ECP,explanation,control,prediction,1,hidden,2.0,a,,a,,3,1,1,1,1.0,3146.7249999523046
2,21.0,easy,ECP,explanation,control,prediction,2,hidden,3.0,a,,a,,2,1,2,2,1.0,1213.2679998569656
2,21.0,easy,ECP,explanation,control,prediction,3,hidden,3.0,b,,a,,3,1,1,1,1.0,788.5039999523433
2,21.0,easy,ECP,explanation,control,prediction,4,hidden,1.0,b,,a,,2,1,2,2,1.0,2500.7439998092595
2,21.0,easy,ECP,explanation,control,prediction,5,hidden,3.0,a,,b,,2,1,2,1,0.0,5671.631999809237
3,21.0,easy,ECP,explanation,control,prediction,1,visible,2.0,a,0.0,a,2.0,,,1,2,0.0,8558.54200009536
3,21.0,easy,ECP,explanation,control,prediction,2,visible,3.0,a,1.0,b,0.0,,,1,1,1.0,4847.511000095343
3,21.0,easy,ECP,explanation,control,prediction,3,visible,0.0,b,2.0,a,3.0,,,2,2,1.0,1212.8699999523233
3,21.0,easy,ECP,explanation,control,prediction,4,visible,3.0,a,1.0,a,0.0,,,1,1,1.0,3827.9560000476777
3,21.0,easy,ECP,explanation,control,prediction,5,visible,0.0,a,2.0,b,2.0,,,2,2,1.0,3993.782999999996
3,21.0,easy,ECP,explanation,control,prediction,1,hidden,2.0,b,,b,2.0,,,2,2,1.0,5371.201000095345
3,21.0,easy,ECP,explanation,control,prediction,2,hidden,3.0,b,,a,0.0,,,2,2,1.0,5291.827000047662
3,21.0,easy,ECP,explanation,control,prediction,3,hidden,2.0,a,,a,2.0,,,1,1,1.0,8848.119999999995
3,21.0,easy,ECP,explanation,control,prediction,4,hidden,3.0,a,,a,2.0,,,1,2,0.0,2981.6289999523437
3,21.0,easy,ECP,explanation,control,prediction,5,hidden,0.0,b,,a,0.0,,,2,1,0.0,3485.504000143032
3,21.0,easy,ECP,explanation,control,prediction,1,visible,2.0,a,3.0,,3.0,a,b,b,a,0.0,3013.5199999522883
3,21.0,easy,ECP,explanation,control,prediction,2,visible,0.0,a,2.0,,2.0,a,b,b,b,1.0,880.4890000000014
3,21.0,easy,ECP,explanation,control,prediction,3,visible,3.0,b,3.0,,0.0,a,b,a,a,1.0,5224.619000143022
3,21.0,easy,ECP,explanation,control,prediction,4,visible,0.0,a,2.0,,0.0,a,b,a,b,0.0,2955.169999952312
3,21.0,easy,ECP,explanation,control,prediction,5,visible,0.0,a,2.0,,3.0,a,b,a,a,1.0,824.4830000476795
3,21.0,easy,ECP,explanation,control,prediction,1,hidden,2.0,,,,1.0,ab,aa,aa,ab,0.0,5140.411000047694
3,21.0,easy,ECP,explanation,control,prediction,2,hidden,0.0,,,,3.0,ab,aa,aa,aa,1.0,5910.575000047684
3,21.0,easy,ECP,explanation,control,prediction,3,hidden,3.0,,,,3.0,bb,ba,bb,bb,1.0,4162.243999952334
3,21.0,easy,ECP,explanation,control,prediction,4,hidden,3.0,,,,2.0,aa,bb,aa,aa,1.0,4267.83100009535
3,21.0,easy,ECP,explanation,control,prediction,5,hidden,2.0,,,,3.0,aa,ab,ab,aa,0.0,3136.4409999523195
3,21.0,easy,ECP,explanation,control,prediction,1,visible,0.0,b,2.0,b,,2,3,2,2,1.0,1604.5500001430628
3,21.0,easy,ECP,explanation,control,prediction,2,visible,1.0,b,0.0,b,,2,1,2,2,1.0,2479.4210000477037
3,21.0,easy,ECP,explanation,control,prediction,3,visible,2.0,a,3.0,a,,0,3,0,0,1.0,5687.401000143029
3,21.0,easy,ECP,explanation,control,prediction,4,visible,3.0,a,1.0,a,,0,1,0,0,1.0,2367.5370001430274
3,21.0,easy,ECP,explanation,control,prediction,5,visible,2.0,b,2.0,a,,1,3,3,3,1.0,1852.3940000477012
3,21.0,easy,ECP,explanation,control,prediction,1,hidden,0.0,b,,a,,3,0,0,0,1.0,5573.687000143051
3,21.0,easy,ECP,explanation,control,prediction,2,hidden,3.0,b,,a,,3,1,1,1,1.0,5782.60800004768
3,21.0,easy,ECP,explanation,control,prediction,3,hidden,2.0,a,,a,,3,1,1,3,0.0,4238.664000047662
3,21.0,easy,ECP,explanation,control,prediction,4,hidden,2.0,a,,b,,0,3,3,3,1.0,3045.085000095365
3,21.0,easy,ECP,explanation,control,prediction,5,hidden,3.0,a,,b,,2,1,2,2,1.0,3123.002999952296
4,21.0,easy,EPC,explanation,prediction,control,1,visible,0.0,a,2.0,a,0.0,,,2,2,1.0,9464.932999999728
4,21.0,easy,EPC,explanation,prediction,control,2,visible,3.0,a,1.0,a,0.0,,,1,2,0.0,3409.4459999998217
4,21.0,easy,EPC,explanation,prediction,control,3,visible,0.0,a,2.0,b,2.0,,,2,1,0.0,6244.814999999711
4,21.0,easy,EPC,explanation,prediction,control,4,visible,0.0,b,2.0,a,0.0,,,2,2,1.0,4033.199999999837
4,21.0,easy,EPC,explanation,prediction,control,5,visible,3.0,a,1.0,b,0.0,,,1,1,1.0,1041.0419999996084
4,21.0,easy,EPC,explanation,prediction,control,1,hidden,2.0,b,,b,2.0,,,2,1,0.0,2774.9969999997998
4,21.0,easy,EPC,explanation,prediction,control,2,hidden,0.0,a,,a,0.0,,,2,2,1.0,2085.794999999809
4,21.0,easy,EPC,explanation,prediction,control,3,hidden,0.0,b,,a,0.0,,,2,2,1.0,1434.2979999997187
4,21.0,easy,EPC,explanation,prediction,control,4,hidden,3.0,b,,a,0.0,,,2,2,1.0,1335.7739999998012
4,21.0,easy,EPC,explanation,prediction,control,5,hidden,3.0,a,,b,2.0,,,1,2,0.0,1901.707999999635
4,21.0,easy,EPC,explanation,prediction,control,1,visible,0.0,b,2.0,b,,2,3,2,2,1.0,1882.0849999996133
4,21.0,easy,EPC,explanation,prediction,control,2,visible,2.0,a,3.0,a,,0,3,0,0,1.0,1533.7490000000107
4,21.0,easy,EPC,explanation,prediction,control,3,visible,1.0,a,0.0,a,,2,0,2,0,0.0,2361.6279999996186
4,21.0,easy,EPC,explanation,prediction,control,4,visible,3.0,a,1.0,a,,0,1,0,0,1.0,2520.341999999713
4,21.0,easy,EPC,explanation,prediction,control,5,visible,2.0,a,3.0,a,,3,1,1,1,1.0,1585.3999999997905
4,21.0,easy,EPC,explanation,prediction,control,1,hidden,3.0,b,,a,,3,1,1,1,1.0,2557.700000000012
4,21.0,easy,EPC,explanation,prediction,control,2,hidden,0.0,b,,a,,3,0,0,0,1.0,10599.247999999903
4,21.0,easy,EPC,explanation,prediction,control,3,hidden,2.0,a,,b,,1,3,3,3,1.0,3421.41899999982
4,21.0,easy,EPC,explanation,prediction,control,4,hidden,2.0,b,,a,,1,3,3,1,0.0,3486.998999999836
4,21.0,easy,EPC,explanation,prediction,control,5,hidden,2.0,a,,a,,3,1,1,1,1.0,1872.4379999997327
4,21.0,easy,EPC,explanation,prediction,control,1,visible,3.0,b,3.0,,3.0,a,b,b,b,1.0,4191.56699999969
4,21.0,easy,EPC,explanation,prediction,control,2,visible,0.0,a,2.0,,2.0,a,b,b,b,1.0,1083.2009999996517
4,21.0,easy,EPC,explanation,prediction,control,3,visible,0.0,b,2.0,,2.0,a,b,b,b,1.0,1976.3899999996647
4,21.0,easy,EPC,explanation,prediction,control,4,visible,3.0,b,3.0,,0.0,a,b,a,a,1.0,2684.5130000000354
4,21.0,easy,EPC,explanation,prediction,control,5,visible,2.0,a,3.0,,3.0,a,b,b,a,0.0,4730.829999999842
4,21.0,easy,EPC,explanation,prediction,control,1,hidden,0.0,,,,3.0,ab,aa,aa,aa,1.0,5479.794999999576
4,21.0,easy,EPC,explanation,prediction,control,2,hidden,3.0,,,,2.0,aa,bb,aa,bb,0.0,4113.287000000011
4,21.0,easy,EPC,explanation,prediction,control,3,hidden,2.0,,,,2.0,aa,bb,bb,bb,1.0,2344.307999999612
4,21.0,easy,EPC,explanation,prediction,control,4,hidden,3.0,,,,3.0,bb,ba,bb,ba,0.0,6899.357999999775
4,21.0,easy,EPC,explanation,prediction,control,5,hidden,0.0,,,,0.0,aa,ab,aa,aa,1.0,3768.006999999867
5,21.0,easy,CEP,control,explanation,prediction,1,visible,0.0,a,2.0,,2.0,a,b,b,b,1.0,3587.9080000029644
5,21.0,easy,CEP,control,explanation,prediction,2,visible,2.0,a,3.0,,3.0,a,b,b,a,0.0,3480.237999991048
5,21.0,easy,CEP,control,explanation,prediction,3,visible,2.0,a,3.0,,1.0,a,b,a,a,1.0,1760.9150000030058
5,21.0,easy,CEP,control,explanation,prediction,4,visible,0.0,b,2.0,,2.0,a,b,b,b,1.0,1398.3110000029556
5,21.0,easy,CEP,control,explanation,prediction,5,visible,0.0,a,2.0,,3.0,a,b,a,a,1.0,3194.5690000000177
5,21.0,easy,CEP,control,explanation,prediction,1,hidden,3.0,,,,2.0,ab,ba,ab,ab,1.0,3916.4219999969937
5,21.0,easy,CEP,control,explanation,prediction,2,hidden,2.0,,,,1.0,ab,aa,aa,aa,1.0,3198.7499999970314
5,21.0,easy,CEP,control,explanation,prediction,3,hidden,2.0,,,,3.0,aa,ab,ab,ab,1.0,2998.211999991036
5,21.0,easy,CEP,control,explanation,prediction,4,hidden,0.0,,,,3.0,ab,aa,aa,ab,0.0,2918.413999991084
5,21.0,easy,CEP,control,explanation,prediction,5,hidden,0.0,,,,2.0,aa,bb,bb,bb,1.0,3809.0559999970137
5,21.0,easy,CEP,control,explanation,prediction,1,visible,0.0,a,2.0,a,0.0,,,2,1,0.0,6381.67499999702
5,21.0,easy,CEP,control,explanation,prediction,2,visible,2.0,a,0.0,b,2.0,,,1,2,0.0,3733.856999991054
5,21.0,easy,CEP,control,explanation,prediction,3,visible,0.0,a,2.0,b,2.0,,,2,2,1.0,4376.150000000023
5,21.0,easy,CEP,control,explanation,prediction,4,visible,3.0,a,0.0,a,2.0,,,1,1,1.0,4561.472000000009
5,21.0,easy,CEP,control,explanation,prediction,5,visible,0.0,b,2.0,a,3.0,,,2,2,1.0,4138.620000002964
5,21.0,easy,CEP,control,explanation,prediction,1,hidden,3.0,a,,b,0.0,,,1,1,1.0,3148.656999994011
5,21.0,easy,CEP,control,explanation,prediction,2,hidden,3.0,a,,b,2.0,,,1,2,0.0,2837.545999994036
5,21.0,easy,CEP,control,explanation,prediction,3,hidden,0.0,a,,a,3.0,,,2,1,0.0,3083.7790000030072
5,21.0,easy,CEP,control,explanation,prediction,4,hidden,0.0,a,,a,0.0,,,2,1,0.0,5248.212999999989
5,21.0,easy,CEP,control,explanation,prediction,5,hidden,0.0,b,,a,0.0,,,2,1,0.0,2494.010000002978
5,21.0,easy,CEP,control,explanation,prediction,1,visible,1.0,a,0.0,a,,2,0,2,0,0.0,2618.8669999970007
5,21.0,easy,CEP,control,explanation,prediction,2,visible,2.0,a,3.0,a,,0,3,0,0,1.0,1756.6519999970333
5,21.0,easy,CEP,control,explanation,prediction,3,visible,3.0,a,1.0,a,,0,1,0,1,0.0,3737.971000002988
5,21.0,easy,CEP,control,explanation,prediction,4,visible,3.0,a,1.0,b,,3,0,0,3,0.0,2321.709999996994
5,21.0,easy,CEP,control,explanation,prediction,5,visible,3.0,b,3.0,a,,1,3,1,1,1.0,3607.135999999999
5,21.0,easy,CEP,control,explanation,prediction,1,hidden,0.0,a,,a,,1,0,0,0,1.0,2890.5259999910486
5,21.0,easy,CEP,control,explanation,prediction,2,hidden,3.0,b,,a,,3,1,1,1,1.0,2838.853999994055
5,21.0,easy,CEP,control,explanation,prediction,3,hidden,2.0,a,,b,,0,3,3,3,1.0,4052.4139999940526
5,21.0,easy,CEP,control,explanation,prediction,4,hidden,3.0,a,,b,,2,1,2,2,1.0,2673.792000000016
5,21.0,easy,CEP,control,explanation,prediction,5,hidden,3.0,a,,a,,2,1,2,2,1.0,2903.339999996999
6,21.0,easy,PEC,prediction,explanation,control,1,visible,3.0,b,3.0,b,,1,3,3,3,1.0,7754.559999952326
6,21.0,easy,PEC,prediction,explanation,control,2,visible,3.0,b,3.0,a,,1,3,1,1,1.0,4542.378999928478
6,21.0,easy,PEC,prediction,explanation,control,3,visible,3.0,a,1.0,a,,0,1,0,0,1.0,5583.302999904612
6,21.0,easy,PEC,prediction,explanation,control,4,visible,0.0,b,2.0,b,,2,3,2,2,1.0,5123.974999952305
6,21.0,easy,PEC,prediction,explanation,control,5,visible,2.0,a,3.0,a,,3,1,1,1,1.0,3158.8499999999767
6,21.0,easy,PEC,prediction,explanation,control,1,hidden,2.0,a,,a,,3,1,1,3,0.0,11748.97399992845
6,21.0,easy,PEC,prediction,explanation,control,2,hidden,1.0,b,,a,,2,1,2,1,0.0,12516.524999952291
6,21.0,easy,PEC,prediction,explanation,control,3,hidden,3.0,b,,a,,3,1,1,1,1.0,4217.291999976151
6,21.0,easy,PEC,prediction,explanation,control,4,hidden,0.0,b,,a,,3,0,0,3,0.0,3726.576999952318
6,21.0,easy,PEC,prediction,explanation,control,5,hidden,3.0,a,,b,,2,1,2,2,1.0,5691.043999952322
6,21.0,easy,PEC,prediction,explanation,control,1,visible,0.0,b,2.0,a,3.0,,,2,2,1.0,3817.302999976149
6,21.0,easy,PEC,prediction,explanation,control,2,visible,2.0,a,0.0,a,2.0,,,1,1,1.0,4526.260999952327
6,21.0,easy,PEC,prediction,explanation,control,3,visible,3.0,a,1.0,a,0.0,,,1,1,1.0,1531.173999999999
6,21.0,easy,PEC,prediction,explanation,control,4,visible,0.0,a,2.0,b,2.0,,,2,2,1.0,409.4339999523363
6,21.0,easy,PEC,prediction,explanation,control,5,visible,3.0,a,0.0,a,2.0,,,1,1,1.0,359.30999992846046
6,21.0,easy,PEC,prediction,explanation,control,1,hidden,3.0,a,,b,2.0,,,1,2,0.0,863.3040000000037
6,21.0,easy,PEC,prediction,explanation,control,2,hidden,2.0,a,,a,2.0,,,1,1,1.0,495.3389999284991
6,21.0,easy,PEC,prediction,explanation,control,3,hidden,0.0,b,,a,0.0,,,2,2,1.0,562.1629999046563
6,21.0,easy,PEC,prediction,explanation,control,4,hidden,0.0,a,,a,3.0,,,2,1,0.0,297.98799995234003
6,21.0,easy,PEC,prediction,explanation,control,5,hidden,0.0,b,,b,2.0,,,2,2,1.0,984.442999952298
6,21.0,easy,PEC,prediction,explanation,control,1,visible,0.0,b,2.0,,2.0,a,b,b,b,1.0,1895.6939999046156
6,21.0,easy,PEC,prediction,explanation,control,2,visible,3.0,b,3.0,,3.0,a,b,b,b,1.0,1132.3409999523428
6,21.0,easy,PEC,prediction,explanation,control,3,visible,0.0,a,2.0,,3.0,a,b,a,a,1.0,4470.590999952343
6,21.0,easy,PEC,prediction,explanation,control,4,visible,2.0,a,3.0,,1.0,a,b,a,a,1.0,654.9699999523
6,21.0,easy,PEC,prediction,explanation,control,5,visible,2.0,b,2.0,,2.0,a,b,b,b,1.0,725.0649999523303
6,21.0,easy,PEC,prediction,explanation,control,1,hidden,2.0,,,,2.0,aa,bb,bb,bb,1.0,2484.7829999761307
6,21.0,easy,PEC,prediction,explanation,control,2,hidden,3.0,,,,2.0,ab,ba,ab,ab,1.0,9886.477999928466
6,21.0,easy,PEC,prediction,explanation,control,3,hidden,0.0,,,,3.0,ab,aa,aa,aa,1.0,2566.7239999999874
6,21.0,easy,PEC,prediction,explanation,control,4,hidden,0.0,,,,2.0,aa,bb,bb,bb,1.0,1548.4919999284905
6,21.0,easy,PEC,prediction,explanation,control,5,hidden,2.0,,,,1.0,ab,aa,aa,aa,1.0,2038.1959999761311
8,21.0,easy,CEP,control,explanation,prediction,1,visible,2.0,a,3.0,,1.0,a,b,a,a,1.0,4959.799999999988
8,21.0,easy,CEP,control,explanation,prediction,2,visible,0.0,a,2.0,,0.0,a,b,a,a,1.0,5148.0199999999895
8,21.0,easy,CEP,control,explanation,prediction,3,visible,0.0,a,2.0,,3.0,a,b,a,a,1.0,3465.8800000000047
8,21.0,easy,CEP,control,explanation,prediction,4,visible,2.0,b,2.0,,2.0,a,b,b,b,1.0,845.8399999999965
8,21.0,easy,CEP,control,explanation,prediction,5,visible,3.0,b,3.0,,3.0,a,b,b,b,1.0,932.5800000000164
8,21.0,easy,CEP,control,explanation,prediction,1,hidden,3.0,,,,3.0,bb,ba,bb,bb,1.0,3328.679999999993
8,21.0,easy,CEP,control,explanation,prediction,2,hidden,3.0,,,,2.0,ab,ba,ab,ab,1.0,3424.9400000000023
8,21.0,easy,CEP,control,explanation,prediction,3,hidden,3.0,,,,1.0,aa,ba,ba,aa,0.0,7562.719999999972
8,21.0,easy,CEP,control,explanation,prediction,4,hidden,0.0,,,,2.0,aa,bb,bb,bb,1.0,4800.599999999977
8,21.0,easy,CEP,control,explanation,prediction,5,hidden,2.0,,,,2.0,aa,bb,bb,aa,0.0,1532.679999999993
8,21.0,easy,CEP,control,explanation,prediction,1,visible,0.0,b,2.0,a,0.0,,,2,2,1.0,12201.02000000002
8,21.0,easy,CEP,control,explanation,prediction,2,visible,0.0,b,2.0,a,3.0,,,2,2,1.0,5051.700000000012
8,21.0,easy,CEP,control,explanation,prediction,3,visible,0.0,a,2.0,a,0.0,,,2,2,1.0,3500.119999999996
8,21.0,easy,CEP,control,explanation,prediction,4,visible,2.0,a,0.0,a,2.0,,,1,1,1.0,5579.5
8,21.0,easy,CEP,control,explanation,prediction,5,visible,0.0,a,2.0,b,2.0,,,2,2,1.0,2581.7399999999907
8,21.0,easy,CEP,control,explanation,prediction,1,hidden,0.0,b,,a,0.0,,,2,1,0.0,7302.719999999972
8,21.0,easy,CEP,control,explanation,prediction,2,hidden,3.0,a,,a,2.0,,,1,2,0.0,6593.640000000014
8,21.0,easy,CEP,control,explanation,prediction,3,hidden,3.0,a,,b,0.0,,,1,1,1.0,9567.880000000005
8,21.0,easy,CEP,control,explanation,prediction,4,hidden,2.0,b,,b,2.0,,,2,2,1.0,6566.119999999995
8,21.0,easy,CEP,control,explanation,prediction,5,hidden,2.0,a,,a,2.0,,,1,2,0.0,5617.340000000026
8,21.0,easy,CEP,control,explanation,prediction,1,visible,3.0,a,1.0,b,,3,0,0,0,1.0,6865.940000000002
8,21.0,easy,CEP,control,explanation,prediction,2,visible,1.0,a,0.0,a,,2,0,2,2,1.0,1863.960000000021
8,21.0,easy,CEP,control,explanation,prediction,3,visible,1.0,b,0.0,b,,2,1,2,2,1.0,7757.340000000026
8,21.0,easy,CEP,control,explanation,prediction,4,visible,2.0,a,3.0,a,,0,3,0,0,1.0,7761.679999999993
8,21.0,easy,CEP,control,explanation,prediction,5,visible,3.0,a,1.0,a,,0,1,0,0,1.0,3040.460000000021
8,21.0,easy,CEP,control,explanation,prediction,1,hidden,2.0,a,,b,,1,3,3,3,1.0,5620.280000000028
8,21.0,easy,CEP,control,explanation,prediction,2,hidden,3.0,a,,a,,2,1,2,2,1.0,5517.840000000026
8,21.0,easy,CEP,control,explanation,prediction,3,hidden,0.0,a,,a,,1,0,0,1,0.0,4473.900000000023
8,21.0,easy,CEP,control,explanation,prediction,4,hidden,3.0,a,,b,,2,1,2,1,0.0,4094.979999999981
8,21.0,easy,CEP,control,explanation,prediction,5,hidden,0.0,b,,a,,3,0,0,3,0.0,10174.53999999998
7,21.0,easy,ECP,explanation,control,prediction,1,visible,2.0,a,0.0,a,2.0,,,1,1,1.0,4193.138000000006
7,21.0,easy,ECP,explanation,control,prediction,2,visible,0.0,a,2.0,b,2.0,,,2,2,1.0,1914.4269999940295
7,21.0,easy,ECP,explanation,control,prediction,3,visible,3.0,a,1.0,a,0.0,,,1,1,1.0,979.1329999940352
7,21.0,easy,ECP,explanation,control,prediction,4,visible,2.0,a,0.0,b,2.0,,,1,2,0.0,3585.619999999996
7,21.0,easy,ECP,explanation,control,prediction,5,visible,0.0,b,2.0,a,0.0,,,2,2,1.0,454.4189999940281
7,21.0,easy,ECP,explanation,control,prediction,1,hidden,0.0,b,,a,0.0,,,2,1,0.0,1918.813000005961
7,21.0,easy,ECP,explanation,control,prediction,2,hidden,2.0,b,,b,2.0,,,2,1,0.0,2049.5809999940398
7,21.0,easy,ECP,explanation,control,prediction,3,hidden,2.0,a,,a,2.0,,,1,1,1.0,1134.9309999940451
7,21.0,easy,ECP,explanation,control,prediction,4,hidden,3.0,a,,b,2.0,,,1,2,0.0,1678.6480000059528
7,21.0,easy,ECP,explanation,control,prediction,5,hidden,3.0,b,,a,0.0,,,2,2,1.0,2878.902999994054
7,21.0,easy,ECP,explanation,control,prediction,1,visible,2.0,a,3.0,,1.0,a,b,a,b,0.0,5075.83600000001
7,21.0,easy,ECP,explanation,control,prediction,2,visible,0.0,b,2.0,,2.0,a,b,b,a,0.0,3053.7700000000186
7,21.0,easy,ECP,explanation,control,prediction,3,visible,2.0,b,2.0,,2.0,a,b,b,b,1.0,804.4189999999944
7,21.0,easy,ECP,explanation,control,prediction,4,visible,3.0,b,3.0,,3.0,a,b,b,b,1.0,619.6660000000265
7,21.0,easy,ECP,explanation,control,prediction,5,visible,2.0,a,3.0,,3.0,a,b,b,a,0.0,1022.25
7,21.0,easy,ECP,explanation,control,prediction,1,hidden,2.0,,,,3.0,aa,ab,ab,aa,0.0,4696.82400000596
7,21.0,easy,ECP,explanation,control,prediction,2,hidden,0.0,,,,0.0,aa,ab,aa,aa,1.0,3926.3769999940414
7,21.0,easy,ECP,explanation,control,prediction,3,hidden,2.0,,,,1.0,ab,aa,aa,aa,1.0,3706.904999994033
7,21.0,easy,ECP,explanation,control,prediction,4,hidden,0.0,,,,2.0,aa,bb,bb,aa,0.0,5615.504999994068
7,21.0,easy,ECP,explanation,control,prediction,5,hidden,2.0,,,,2.0,aa,bb,bb,aa,0.0,693.2320000000182
7,21.0,easy,ECP,explanation,control,prediction,1,visible,1.0,a,0.0,a,,2,0,2,2,1.0,2396.552000000025
7,21.0,easy,ECP,explanation,control,prediction,2,visible,3.0,b,3.0,b,,1,3,3,3,1.0,928.4340000000084
7,21.0,easy,ECP,explanation,control,prediction,3,visible,1.0,b,0.0,b,,2,1,2,2,1.0,2569.240999994043
7,21.0,easy,ECP,explanation,control,prediction,4,visible,2.0,a,3.0,a,,3,1,1,3,0.0,1200.4529999940423
7,21.0,easy,ECP,explanation,control,prediction,5,visible,3.0,a,1.0,a,,0,1,0,0,1.0,2911.746999999974
7,21.0,easy,ECP,explanation,control,prediction,1,hidden,2.0,a,,b,,0,3,3,3,1.0,3500.384999994014
7,21.0,easy,ECP,explanation,control,prediction,2,hidden,3.0,a,,b,,2,1,2,1,0.0,5254.920999999973
7,21.0,easy,ECP,explanation,control,prediction,3,hidden,2.0,b,,a,,1,3,3,1,0.0,6641.52199999406
7,21.0,easy,ECP,explanation,control,prediction,4,hidden,2.0,a,,a,,3,1,1,1,1.0,2481.360999999976
7,21.0,easy,ECP,explanation,control,prediction,5,hidden,0.0,a,,a,,1,0,0,0,1.0,1934.776999994065
9,21.0,easy,EPC,explanation,prediction,control,1,visible,0.0,a,2.0,a,0.0,,,2,2,1.0,11609.232000000367
9,21.0,easy,EPC,explanation,prediction,control,2,visible,0.0,b,2.0,a,0.0,,,2,2,1.0,2566.623999999836
9,21.0,easy,EPC,explanation,prediction,control,3,visible,2.0,a,0.0,a,2.0,,,1,2,0.0,5345.76300000021
9,21.0,easy,EPC,explanation,prediction,control,4,visible,2.0,a,0.0,b,2.0,,,1,2,0.0,1405.1389999996172
9,21.0,easy,EPC,explanation,prediction,control,5,visible,3.0,a,0.0,a,2.0,,,1,1,1.0,5852.900999999605
9,21.0,easy,EPC,explanation,prediction,control,1,hidden,0.0,b,,b,2.0,,,2,2,1.0,9925.41800000018
9,21.0,easy,EPC,explanation,prediction,control,2,hidden,3.0,a,,b,2.0,,,1,2,0.0,2893.86400000035
9,21.0,easy,EPC,explanation,prediction,control,3,hidden,3.0,a,,a,2.0,,,1,1,1.0,4815.81899999961
9,21.0,easy,EPC,explanation,prediction,control,4,hidden,3.0,a,,b,0.0,,,1,1,1.0,5122.337999999814
9,21.0,easy,EPC,explanation,prediction,control,5,hidden,0.0,b,,a,0.0,,,2,2,1.0,4020.372000000381
9,21.0,easy,EPC,explanation,prediction,control,1,visible,0.0,b,2.0,b,,2,3,2,2,1.0,2117.154999999795
9,21.0,easy,EPC,explanation,prediction,control,2,visible,3.0,a,1.0,a,,0,1,0,0,1.0,2813.4390000003623
9,21.0,easy,EPC,explanation,prediction,control,3,visible,3.0,b,3.0,a,,1,3,1,1,1.0,6562.259000000195
9,21.0,easy,EPC,explanation,prediction,control,4,visible,3.0,b,3.0,b,,1,3,3,3,1.0,8321.925000000163
9,21.0,easy,EPC,explanation,prediction,control,5,visible,2.0,a,3.0,a,,3,1,1,1,1.0,4095.239999999758
9,21.0,easy,EPC,explanation,prediction,control,1,hidden,2.0,a,,b,,1,3,3,3,1.0,5872.443000000203
9,21.0,easy,EPC,explanation,prediction,control,2,hidden,1.0,b,,a,,2,1,2,1,0.0,3388.721999999834
9,21.0,easy,EPC,explanation,prediction,control,3,hidden,0.0,a,,a,,1,0,0,1,0.0,5620.387999999803
9,21.0,easy,EPC,explanation,prediction,control,4,hidden,0.0,b,,a,,3,0,0,0,1.0,4626.544999999576
9,21.0,easy,EPC,explanation,prediction,control,5,hidden,3.0,a,,b,,2,1,2,2,1.0,7374.20100000035
9,21.0,easy,EPC,explanation,prediction,control,1,visible,0.0,b,2.0,,2.0,a,b,b,b,1.0,955.4990000001852
9,21.0,easy,EPC,explanation,prediction,control,2,visible,2.0,a,3.0,,3.0,a,b,b,b,1.0,4922.135000000009
9,21.0,easy,EPC,explanation,prediction,control,3,visible,3.0,b,3.0,,3.0,a,b,b,b,1.0,2209.131000000169
9,21.0,easy,EPC,explanation,prediction,control,4,visible,2.0,b,2.0,,2.0,a,b,b,b,1.0,3181.922000000137
9,21.0,easy,EPC,explanation,prediction,control,5,visible,0.0,a,2.0,,3.0,a,b,a,b,0.0,8712.907000000356
9,21.0,easy,EPC,explanation,prediction,control,1,hidden,2.0,,,,3.0,aa,ab,ab,aa,0.0,6964.470999999787
9,21.0,easy,EPC,explanation,prediction,control,2,hidden,3.0,,,,2.0,ab,ba,ab,ab,1.0,5307.45100000035
9,21.0,easy,EPC,explanation,prediction,control,3,hidden,2.0,,,,1.0,ab,aa,aa,aa,1.0,2517.4440000000177
9,21.0,easy,EPC,explanation,prediction,control,4,hidden,0.0,,,,3.0,ab,aa,aa,ab,0.0,7239.072000000393
9,21.0,easy,EPC,explanation,prediction,control,5,hidden,3.0,,,,2.0,aa,bb,aa,bb,0.0,2428.7159999996657
13,21.0,easy,PEC,prediction,explanation,control,1,visible,1.0,a,0.0,a,,2,0,2,2,1.0,2797.7330000000075
13,21.0,easy,PEC,prediction,explanation,control,2,visible,2.0,a,3.0,a,,0,3,0,3,0.0,9707.986000000034
13,21.0,easy,PEC,prediction,explanation,control,3,visible,0.0,b,2.0,b,,2,3,2,2,1.0,4086.515000000014
13,21.0,easy,PEC,prediction,explanation,control,4,visible,3.0,a,1.0,b,,3,0,0,0,1.0,5299.685999999987
13,21.0,easy,PEC,prediction,explanation,control,5,visible,3.0,a,1.0,a,,0,1,0,0,1.0,3158.47199999995
13,21.0,easy,PEC,prediction,explanation,control,1,hidden,2.0,a,,a,,3,1,1,3,0.0,14502.279000000097
13,21.0,easy,PEC,prediction,explanation,control,2,hidden,2.0,b,,a,,1,3,3,1,0.0,4738.91399999999
13,21.0,easy,PEC,prediction,explanation,control,3,hidden,0.0,b,,a,,3,0,0,3,0.0,8584.625
13,21.0,easy,PEC,prediction,explanation,control,4,hidden,3.0,a,,a,,2,1,2,2,1.0,3698.2889999999898
13,21.0,easy,PEC,prediction,explanation,control,5,hidden,2.0,a,,b,,1,3,3,3,1.0,5772.557999999961
13,21.0,easy,PEC,prediction,explanation,control,1,visible,0.0,a,2.0,a,0.0,,,2,1,0.0,4145.694000000018
13,21.0,easy,PEC,prediction,explanation,control,2,visible,0.0,a,2.0,b,2.0,,,2,1,0.0,8974.748000000021
13,21.0,easy,PEC,prediction,explanation,control,3,visible,3.0,a,1.0,a,0.0,,,1,2,0.0,3111.228000000003
13,21.0,easy,PEC,prediction,explanation,control,4,visible,0.0,b,2.0,a,3.0,,,2,2,1.0,4207.040000000037
13,21.0,easy,PEC,prediction,explanation,control,5,visible,0.0,b,2.0,a,0.0,,,2,2,1.0,8402.195999999996
13,21.0,easy,PEC,prediction,explanation,control,1,hidden,0.0,a,,a,3.0,,,2,1,0.0,15030.787000000128
13,21.0,easy,PEC,prediction,explanation,control,2,hidden,3.0,a,,b,2.0,,,1,2,0.0,2986.976000000024
13,21.0,easy,PEC,prediction,explanation,control,3,hidden,3.0,a,,a,2.0,,,1,1,1.0,4005.5830000001006
13,21.0,easy,PEC,prediction,explanation,control,4,hidden,0.0,b,,a,0.0,,,2,2,1.0,3666.731000000029
13,21.0,easy,PEC,prediction,explanation,control,5,hidden,0.0,b,,b,2.0,,,2,1,0.0,11491.465000000084
13,21.0,easy,PEC,prediction,explanation,control,1,visible,3.0,b,3.0,,0.0,a,b,a,a,1.0,3647.386000000057
13,21.0,easy,PEC,prediction,explanation,control,2,visible,2.0,a,3.0,,3.0,a,b,b,b,1.0,2454.640000000014
13,21.0,easy,PEC,prediction,explanation,control,3,visible,2.0,b,2.0,,2.0,a,b,b,b,1.0,1604.2789999999804
13,21.0,easy,PEC,prediction,explanation,control,4,visible,3.0,b,3.0,,3.0,a,b,b,b,1.0,2999.051000000094
13,21.0,easy,PEC,prediction,explanation,control,5,visible,0.0,a,2.0,,0.0,a,b,a,a,1.0,5384.744999999995
13,21.0,easy,PEC,prediction,explanation,control,1,hidden,3.0,,,,2.0,ab,ba,ab,ba,0.0,15761.341000000015
13,21.0,easy,PEC,prediction,explanation,control,2,hidden,0.0,,,,2.0,aa,bb,bb,aa,0.0,7148.726000000024
13,21.0,easy,PEC,prediction,explanation,control,3,hidden,2.0,,,,2.0,aa,bb,bb,bb,1.0,5151.966000000015
13,21.0,easy,PEC,prediction,explanation,control,4,hidden,2.0,,,,3.0,aa,ab,ab,ab,1.0,7773.39300000004
13,21.0,easy,PEC,prediction,explanation,control,5,hidden,3.0,,,,1.0,aa,ba,ba,ba,1.0,7343.525000000023
11,21.0,easy,CEP,control,explanation,prediction,1,visible,2.0,a,3.0,,3.0,a,b,b,a,0.0,2405.1200000476674
11,21.0,easy,CEP,control,explanation,prediction,2,visible,0.0,a,2.0,,3.0,a,b,a,a,1.0,2096.6480000476586
11,21.0,easy,CEP,control,explanation,prediction,3,visible,2.0,a,3.0,,1.0,a,b,a,a,1.0,735.3719999999739
11,21.0,easy,CEP,control,explanation,prediction,4,visible,0.0,b,2.0,,2.0,a,b,b,b,1.0,1686.8560000000289
11,21.0,easy,CEP,control,explanation,prediction,5,visible,3.0,b,3.0,,0.0,a,b,a,a,1.0,922.1899999523304
11,21.0,easy,CEP,control,explanation,prediction,1,hidden,3.0,,,,2.0,aa,bb,aa,bb,0.0,7081.943999856943
11,21.0,easy,CEP,control,explanation,prediction,2,hidden,0.0,,,,3.0,ab,aa,aa,aa,1.0,3538.3580000000075
11,21.0,easy,CEP,control,explanation,prediction,3,hidden,3.0,,,,2.0,ab,ba,ab,ab,1.0,4118.319999904605
11,21.0,easy,CEP,control,explanation,prediction,4,hidden,2.0,,,,2.0,aa,bb,bb,bb,1.0,3906.891999999993
11,21.0,easy,CEP,control,explanation,prediction,5,hidden,2.0,,,,1.0,ab,aa,aa,aa,1.0,2698.4470000476576
11,21.0,easy,CEP,control,explanation,prediction,1,visible,3.0,a,0.0,a,2.0,,,1,2,0.0,8392.494999952323
11,21.0,easy,CEP,control,explanation,prediction,2,visible,3.0,a,1.0,b,0.0,,,1,1,1.0,1814.6990000476944
11,21.0,easy,CEP,control,explanation,prediction,3,visible,2.0,a,0.0,b,2.0,,,1,2,0.0,1324.0869999999995
11,21.0,easy,CEP,control,explanation,prediction,4,visible,0.0,b,2.0,a,3.0,,,2,1,0.0,1563.936999904632
11,21.0,easy,CEP,control,explanation,prediction,5,visible,0.0,a,2.0,b,2.0,,,2,2,1.0,1803.9030000476632
11,21.0,easy,CEP,control,explanation,prediction,1,hidden,0.0,b,,b,2.0,,,2,2,1.0,2685.221999952337
11,21.0,easy,CEP,control,explanation,prediction,2,hidden,3.0,a,,b,2.0,,,1,2,0.0,858.7470000477042
11,21.0,easy,CEP,control,explanation,prediction,3,hidden,3.0,b,,a,0.0,,,2,2,1.0,2066.600999952294
11,21.0,easy,CEP,control,explanation,prediction,4,hidden,0.0,b,,a,0.0,,,2,2,1.0,2907.353999999992
11,21.0,easy,CEP,control,explanation,prediction,5,hidden,0.0,a,,a,3.0,,,2,2,1.0,780.1949999046046
11,21.0,easy,CEP,control,explanation,prediction,1,visible,3.0,b,3.0,a,,1,3,1,1,1.0,3419.613999856927
11,21.0,easy,CEP,control,explanation,prediction,2,visible,2.0,a,3.0,a,,0,3,0,0,1.0,1592.99099999998
11,21.0,easy,CEP,control,explanation,prediction,3,visible,2.0,b,2.0,a,,1,3,3,3,1.0,2832.015999952331
11,21.0,easy,CEP,control,explanation,prediction,4,visible,3.0,b,3.0,b,,1,3,3,1,0.0,4129.893999999971
11,21.0,easy,CEP,control,explanation,prediction,5,visible,1.0,a,0.0,a,,2,0,2,2,1.0,5425.577000047662
11,21.0,easy,CEP,control,explanation,prediction,1,hidden,0.0,b,,a,,3,0,0,0,1.0,2273.3079998569447
11,21.0,easy,CEP,control,explanation,prediction,2,hidden,2.0,a,,b,,1,3,3,1,0.0,5105.336999952328
11,21.0,easy,CEP,control,explanation,prediction,3,hidden,3.0,b,,a,,3,1,1,1,1.0,1716.734999904642
11,21.0,easy,CEP,control,explanation,prediction,4,hidden,3.0,a,,a,,2,1,2,2,1.0,2001.420999999973
11,21.0,easy,CEP,control,explanation,prediction,5,hidden,3.0,a,,b,,2,1,2,2,1.0,2844.7790000477107
10,21.0,easy,PCE,prediction,control,explanation,1,visible,0.0,b,2.0,b,,2,3,2,2,1.0,6489.305000011926
10,21.0,easy,PCE,prediction,control,explanation,2,visible,2.0,a,3.0,a,,0,3,0,0,1.0,3204.9749999881024
10,21.0,easy,PCE,prediction,control,explanation,3,visible,3.0,a,1.0,a,,0,1,0,0,1.0,2022.1770000118995
10,21.0,easy,PCE,prediction,control,explanation,4,visible,3.0,b,3.0,b,,1,3,3,3,1.0,1205.0499999761814
10,21.0,easy,PCE,prediction,control,explanation,5,visible,3.0,b,3.0,a,,1,3,1,1,1.0,2022.1720000000205
10,21.0,easy,PCE,prediction,control,explanation,1,hidden,0.0,b,,a,,3,0,0,0,1.0,15255.192000011913
10,21.0,easy,PCE,prediction,control,explanation,2,hidden,2.0,a,,b,,0,3,3,3,1.0,6655.5899999761605
10,21.0,easy,PCE,prediction,control,explanation,3,hidden,3.0,a,,b,,2,1,2,2,1.0,4072.16799997614
10,21.0,easy,PCE,prediction,control,explanation,4,hidden,0.0,a,,a,,1,0,0,1,0.0,6055.146999976132
10,21.0,easy,PCE,prediction,control,explanation,5,hidden,2.0,a,,b,,1,3,3,3,1.0,3572.2430000119493
10,21.0,easy,PCE,prediction,control,explanation,1,visible,0.0,a,2.0,,0.0,a,b,a,a,1.0,3071.805999976176
10,21.0,easy,PCE,prediction,control,explanation,2,visible,0.0,b,2.0,,3.0,a,b,a,a,1.0,2054.947999964236
10,21.0,easy,PCE,prediction,control,explanation,3,visible,2.0,a,3.0,,1.0,a,b,a,a,1.0,738.6039999880595
10,21.0,easy,PCE,prediction,control,explanation,4,visible,3.0,b,3.0,,0.0,a,b,a,a,1.0,688.3029999761493
10,21.0,easy,PCE,prediction,control,explanation,5,visible,3.0,b,3.0,,3.0,a,b,b,b,1.0,788.5709999999963
10,21.0,easy,PCE,prediction,control,explanation,1,hidden,2.0,,,,3.0,aa,ab,ab,ab,1.0,6822.348999964248
10,21.0,easy,PCE,prediction,control,explanation,2,hidden,3.0,,,,3.0,bb,ba,bb,bb,1.0,755.4380000000237
10,21.0,easy,PCE,prediction,control,explanation,3,hidden,3.0,,,,1.0,aa,ba,ba,ba,1.0,13589.32199997618
10,21.0,easy,PCE,prediction,control,explanation,4,hidden,0.0,,,,2.0,aa,bb,bb,bb,1.0,2722.588999976171
10,21.0,easy,PCE,prediction,control,explanation,5,hidden,2.0,,,,1.0,ab,aa,aa,aa,1.0,3956.385000011942
10,21.0,easy,PCE,prediction,control,explanation,1,visible,2.0,a,0.0,a,2.0,,,1,2,0.0,4105.571999999986
10,21.0,easy,PCE,prediction,control,explanation,2,visible,0.0,b,2.0,a,0.0,,,2,2,1.0,3605.077999988105
10,21.0,easy,PCE,prediction,control,explanation,3,visible,3.0,a,0.0,a,2.0,,,1,2,0.0,4622.209999976156
10,21.0,easy,PCE,prediction,control,explanation,4,visible,0.0,b,2.0,a,3.0,,,2,2,1.0,1888.7409999642405
10,21.0,easy,PCE,prediction,control,explanation,5,visible,3.0,a,1.0,b,0.0,,,1,1,1.0,4488.374999976135
10,21.0,easy,PCE,prediction,control,explanation,1,hidden,0.0,a,,a,0.0,,,2,2,1.0,3355.4749999881024
10,21.0,easy,PCE,prediction,control,explanation,2,hidden,2.0,b,,b,2.0,,,2,1,0.0,1405.1509999642149
10,21.0,easy,PCE,prediction,control,explanation,3,hidden,0.0,a,,a,3.0,,,2,2,1.0,722.060999999987
10,21.0,easy,PCE,prediction,control,explanation,4,hidden,2.0,a,,a,2.0,,,1,1,1.0,1638.269999988086
10,21.0,easy,PCE,prediction,control,explanation,5,hidden,0.0,b,,a,0.0,,,2,2,1.0,521.8559999642312
12,21.0,easy,ECP,explanation,control,prediction,1,visible,0.0,b,2.0,a,3.0,,,2,1,0.0,10268.105999998515
12,21.0,easy,ECP,explanation,control,prediction,2,visible,3.0,a,1.0,a,0.0,,,1,2,0.0,4441.11900000149
12,21.0,easy,ECP,explanation,control,prediction,3,visible,3.0,a,0.0,a,2.0,,,1,2,0.0,3498.512999998522
12,21.0,easy,ECP,explanation,control,prediction,4,visible,3.0,a,1.0,b,0.0,,,1,2,0.0,4543.97500000149
12,21.0,easy,ECP,explanation,control,prediction,5,visible,0.0,b,2.0,b,2.0,,,2,2,1.0,2253.817999998515
12,21.0,easy,ECP,explanation,control,prediction,1,hidden,3.0,a,,b,0.0,,,1,2,0.0,4927.304000000004
12,21.0,easy,ECP,explanation,control,prediction,2,hidden,0.0,b,,a,0.0,,,2,2,1.0,8766.207000001508
12,21.0,easy,ECP,explanation,control,prediction,3,hidden,0.0,a,,a,3.0,,,2,1,0.0,721.380999999994
12,21.0,easy,ECP,explanation,control,prediction,4,hidden,3.0,a,,a,2.0,,,1,2,0.0,4690.465000001481
12,21.0,easy,ECP,explanation,control,prediction,5,hidden,2.0,b,,b,2.0,,,2,2,1.0,4193.100999995542
12,21.0,easy,ECP,explanation,control,prediction,1,visible,3.0,b,3.0,,0.0,a,b,a,a,1.0,5506.3369999955175
12,21.0,easy,ECP,explanation,control,prediction,2,visible,0.0,a,2.0,,0.0,a,b,a,a,1.0,3705.873999997042
12,21.0,easy,ECP,explanation,control,prediction,3,visible,0.0,b,2.0,,2.0,a,b,b,b,1.0,5583.041000001482
12,21.0,easy,ECP,explanation,control,prediction,4,visible,3.0,b,3.0,,3.0,a,b,b,b,1.0,2809.568000001484
12,21.0,easy,ECP,explanation,control,prediction,5,visible,0.0,a,2.0,,3.0,a,b,a,b,0.0,2677.0559999999823
12,21.0,easy,ECP,explanation,control,prediction,1,hidden,2.0,,,,2.0,aa,bb,bb,bb,1.0,3672.690999997023
12,21.0,easy,ECP,explanation,control,prediction,2,hidden,2.0,,,,3.0,aa,ab,ab,ab,1.0,923.3929999985266
12,21.0,easy,ECP,explanation,control,prediction,3,hidden,3.0,,,,1.0,aa,ba,ba,aa,0.0,1184.6809999955583
12,21.0,easy,ECP,explanation,control,prediction,4,hidden,0.0,,,,3.0,ab,aa,aa,ab,0.0,4314.216999998491
12,21.0,easy,ECP,explanation,control,prediction,5,hidden,3.0,,,,2.0,ab,ba,ab,ba,0.0,2865.035000001488
12,21.0,easy,ECP,explanation,control,prediction,1,visible,2.0,b,2.0,a,,1,3,3,3,1.0,2322.5100000000093
12,21.0,easy,ECP,explanation,control,prediction,2,visible,1.0,b,0.0,b,,2,1,2,2,1.0,1989.2779999955087
12,21.0,easy,ECP,explanation,control,prediction,3,visible,3.0,a,1.0,b,,3,0,0,3,0.0,7908.771999995515
12,21.0,easy,ECP,explanation,control,prediction,4,visible,3.0,b,3.0,a,,1,3,1,3,0.0,2016.6410000000035
12,21.0,easy,ECP,explanation,control,prediction,5,visible,2.0,a,3.0,a,,0,3,0,3,0.0,1203.662999997032
12,21.0,easy,ECP,explanation,control,prediction,1,hidden,2.0,b,,a,,1,3,3,3,1.0,4687.406999997038
12,21.0,easy,ECP,explanation,control,prediction,2,hidden,2.0,a,,a,,3,1,1,3,0.0,2488.102999995521
12,21.0,easy,ECP,explanation,control,prediction,3,hidden,0.0,b,,a,,3,0,0,0,1.0,2141.6569999955245
12,21.0,easy,ECP,explanation,control,prediction,4,hidden,1.0,b,,a,,2,1,2,2,1.0,1741.1079999970389
12,21.0,easy,ECP,explanation,control,prediction,5,hidden,3.0,a,,a,,2,1,2,1,0.0,6179.465999997046
14,21.0,easy,CPE,control,prediction,explanation,1,visible,2.0,b,2.0,,2.0,a,b,b,a,0.0,3711.118000095361
14,21.0,easy,CPE,control,prediction,explanation,2,visible,2.0,a,3.0,,3.0,a,b,b,b,1.0,7223.612000047695
14,21.0,easy,CPE,control,prediction,explanation,3,visible,0.0,a,2.0,,0.0,a,b,a,a,1.0,3699.0400001907256
14,21.0,easy,CPE,control,prediction,explanation,4,visible,0.0,b,2.0,,3.0,a,b,a,a,1.0,1396.1550000477
14,21.0,easy,CPE,control,prediction,explanation,5,visible,2.0,a,3.0,,1.0,a,b,a,b,0.0,1179.3500001907232
14,21.0,easy,CPE,control,prediction,explanation,1,hidden,0.0,,,,3.0,ab,aa,aa,aa,1.0,9904.143000095384
14,21.0,easy,CPE,control,prediction,explanation,2,hidden,3.0,,,,3.0,bb,ba,bb,ba,0.0,4647.74500009534
14,21.0,easy,CPE,control,prediction,explanation,3,hidden,3.0,,,,1.0,aa,ba,ba,ba,1.0,1520.4739999999874
14,21.0,easy,CPE,control,prediction,explanation,4,hidden,2.0,,,,2.0,aa,bb,bb,aa,0.0,3630.0370000953553
14,21.0,easy,CPE,control,prediction,explanation,5,hidden,3.0,,,,2.0,ab,ba,ab,ba,0.0,1561.8100000476695
14,21.0,easy,CPE,control,prediction,explanation,1,visible,2.0,a,3.0,a,,3,1,1,1,1.0,2567.5779999999795
14,21.0,easy,CPE,control,prediction,explanation,2,visible,3.0,b,3.0,a,,1,3,1,1,1.0,4778.5
14,21.0,easy,CPE,control,prediction,explanation,3,visible,3.0,b,3.0,b,,1,3,3,3,1.0,3771.979000047664
14,21.0,easy,CPE,control,prediction,explanation,4,visible,2.0,b,2.0,a,,1,3,3,1,0.0,2118.2360000477056
14,21.0,easy,CPE,control,prediction,explanation,5,visible,1.0,a,0.0,a,,2,0,2,2,1.0,1675.1240000953549
14,21.0,easy,CPE,control,prediction,explanation,1,hidden,2.0,b,,a,,1,3,3,1,0.0,1726.5250001430395
14,21.0,easy,CPE,control,prediction,explanation,2,hidden,0.0,b,,a,,3,0,0,0,1.0,1123.2730000953889
14,21.0,easy,CPE,control,prediction,explanation,3,hidden,3.0,a,,b,,2,1,2,2,1.0,1395.4580001430586
14,21.0,easy,CPE,control,prediction,explanation,4,hidden,2.0,a,,b,,0,3,3,0,0.0,1719.788000190747
14,21.0,easy,CPE,control,prediction,explanation,5,hidden,2.0,a,,b,,1,3,3,3,1.0,1352.8360001907567
14,21.0,easy,CPE,control,prediction,explanation,1,visible,0.0,b,2.0,a,3.0,,,2,1,0.0,8665.148000095389
14,21.0,easy,CPE,control,prediction,explanation,2,visible,2.0,a,0.0,a,2.0,,,1,2,0.0,2207.271000095352
14,21.0,easy,CPE,control,prediction,explanation,3,visible,0.0,b,2.0,b,2.0,,,2,1,0.0,2672.7200000477023
14,21.0,easy,CPE,control,prediction,explanation,4,visible,2.0,a,0.0,b,2.0,,,1,1,1.0,1491.9479999999749
14,21.0,easy,CPE,control,prediction,explanation,5,visible,3.0,a,0.0,a,2.0,,,1,2,0.0,1444.4200001907302
14,21.0,easy,CPE,control,prediction,explanation,1,hidden,3.0,a,,b,2.0,,,1,2,0.0,2048.890000000014
14,21.0,easy,CPE,control,prediction,explanation,2,hidden,0.0,b,,a,0.0,,,2,1,0.0,1926.3590000476688
14,21.0,easy,CPE,control,prediction,explanation,3,hidden,0.0,a,,a,0.0,,,2,2,1.0,1245.368000095361
14,21.0,easy,CPE,control,prediction,explanation,4,hidden,3.0,a,,a,2.0,,,1,2,0.0,1855.3880000953795
14,21.0,easy,CPE,control,prediction,explanation,5,hidden,2.0,a,,a,2.0,,,1,1,1.0,1066.8410001907614
15,21.0,easy,ECP,explanation,control,prediction,1,visible,0.0,a,2.0,b,2.0,,,2,2,1.0,4153.97099999999
15,21.0,easy,ECP,explanation,control,prediction,2,visible,3.0,a,1.0,a,0.0,,,1,2,0.0,6133.181000000361
15,21.0,easy,ECP,explanation,control,prediction,3,visible,2.0,a,0.0,b,2.0,,,1,2,0.0,884.0740000003716
15,21.0,easy,ECP,explanation,control,prediction,4,visible,0.0,b,2.0,b,2.0,,,2,2,1.0,495.05600000038976
15,21.0,easy,ECP,explanation,control,prediction,5,visible,0.0,a,2.0,a,0.0,,,2,2,1.0,677.5030000000261
15,21.0,easy,ECP,explanation,control,prediction,1,hidden,0.0,b,,a,0.0,,,2,2,1.0,6830.071000000753
15,21.0,easy,ECP,explanation,control,prediction,2,hidden,2.0,a,,a,2.0,,,1,1,1.0,5955.602000000363
15,21.0,easy,ECP,explanation,control,prediction,3,hidden,3.0,a,,b,2.0,,,1,2,0.0,1302.0970000005327
15,21.0,easy,ECP,explanation,control,prediction,4,hidden,0.0,a,,a,0.0,,,2,2,1.0,1473.310000000347
15,21.0,easy,ECP,explanation,control,prediction,5,hidden,3.0,b,,a,0.0,,,2,2,1.0,738.0169999999925
15,21.0,easy,ECP,explanation,control,prediction,1,visible,3.0,b,3.0,,3.0,a,b,b,a,0.0,7882.746000000392
15,21.0,easy,ECP,explanation,control,prediction,2,visible,2.0,a,3.0,,1.0,a,b,a,a,1.0,1380.572000000393
15,21.0,easy,ECP,explanation,control,prediction,3,visible,3.0,b,3.0,,0.0,a,b,a,a,1.0,1201.7430000005406
15,21.0,easy,ECP,explanation,control,prediction,4,visible,0.0,b,2.0,,2.0,a,b,b,b,1.0,977.6420000001672
15,21.0,easy,ECP,explanation,control,prediction,5,visible,0.0,a,2.0,,2.0,a,b,b,b,1.0,804.4760000007227
15,21.0,easy,ECP,explanation,control,prediction,1,hidden,0.0,,,,2.0,aa,bb,bb,bb,1.0,4323.126000000397
15,21.0,easy,ECP,explanation,control,prediction,2,hidden,2.0,,,,3.0,aa,ab,ab,aa,0.0,3503.620000000752
15,21.0,easy,ECP,explanation,control,prediction,3,hidden,3.0,,,,1.0,aa,ba,ba,aa,0.0,663.0180000003893
15,21.0,easy,ECP,explanation,control,prediction,4,hidden,2.0,,,,1.0,ab,aa,aa,aa,1.0,1983.3540000003995
15,21.0,easy,ECP,explanation,control,prediction,5,hidden,0.0,,,,0.0,aa,ab,aa,aa,1.0,1423.0840000002063
15,21.0,easy,ECP,explanation,control,prediction,1,visible,1.0,a,0.0,a,,2,0,2,2,1.0,13463.236000000556
15,21.0,easy,ECP,explanation,control,prediction,2,visible,2.0,a,3.0,a,,0,3,0,0,1.0,683.8830000002054
15,21.0,easy,ECP,explanation,control,prediction,3,visible,2.0,b,2.0,a,,1,3,3,1,0.0,2894.954000000725
15,21.0,easy,ECP,explanation,control,prediction,4,visible,3.0,b,3.0,b,,1,3,3,1,0.0,3586.870000000752
15,21.0,easy,ECP,explanation,control,prediction,5,visible,0.0,b,2.0,b,,2,3,2,2,1.0,1312.7210000005434
15,21.0,easy,ECP,explanation,control,prediction,1,hidden,2.0,b,,a,,1,3,3,1,0.0,4316.162000000768
15,21.0,easy,ECP,explanation,control,prediction,2,hidden,0.0,a,,a,,1,0,0,1,0.0,4814.673000000534
15,21.0,easy,ECP,explanation,control,prediction,3,hidden,3.0,b,,a,,3,1,1,1,1.0,2535.177000000549
15,21.0,easy,ECP,explanation,control,prediction,4,hidden,0.0,b,,a,,3,0,0,0,1.0,1552.8500000007334
15,21.0,easy,ECP,explanation,control,prediction,5,hidden,2.0,a,,b,,1,3,3,1,0.0,3584.081000000355
16,21.0,easy,EPC,explanation,prediction,control,1,visible,2.0,a,0.0,b,2.0,,,1,2,0.0,2904.1599999999744
16,21.0,easy,EPC,explanation,prediction,control,2,visible,0.0,a,2.0,b,2.0,,,2,2,1.0,1819.5
16,21.0,easy,EPC,explanation,prediction,control,3,visible,0.0,b,2.0,b,2.0,,,2,2,1.0,1410.9400000000023
16,21.0,easy,EPC,explanation,prediction,control,4,visible,3.0,a,1.0,a,0.0,,,1,2,0.0,5761.880000000005
16,21.0,easy,EPC,explanation,prediction,control,5,visible,3.0,a,0.0,a,2.0,,,1,2,0.0,1688.8800000000049
16,21.0,easy,EPC,explanation,prediction,control,1,hidden,2.0,b,,b,2.0,,,2,2,1.0,2390.200000000012
16,21.0,easy,EPC,explanation,prediction,control,2,hidden,0.0,b,,a,0.0,,,2,2,1.0,2414.7999999999884
16,21.0,easy,EPC,explanation,prediction,control,3,hidden,3.0,a,,a,2.0,,,1,2,0.0,3547.719999999972
16,21.0,easy,EPC,explanation,prediction,control,4,hidden,2.0,a,,a,2.0,,,1,2,0.0,1359.6599999999744
16,21.0,easy,EPC,explanation,prediction,control,5,hidden,3.0,a,,b,2.0,,,1,2,0.0,1073.5999999999767
16,21.0,easy,EPC,explanation,prediction,control,1,visible,1.0,b,0.0,b,,2,1,2,2,1.0,1089.0999999999767
16,21.0,easy,EPC,explanation,prediction,control,2,visible,0.0,b,2.0,b,,2,3,2,2,1.0,850.9400000000023
16,21.0,easy,EPC,explanation,prediction,control,3,visible,2.0,a,3.0,a,,3,1,1,1,1.0,6516.840000000026
16,21.0,easy,EPC,explanation,prediction,control,4,visible,3.0,a,1.0,b,,3,0,0,0,1.0,1256.219999999972
16,21.0,easy,EPC,explanation,prediction,control,5,visible,1.0,a,0.0,a,,2,0,2,2,1.0,2663.5999999999767
16,21.0,easy,EPC,explanation,prediction,control,1,hidden,2.0,b,,a,,1,3,3,3,1.0,1704.2000000000116
16,21.0,easy,EPC,explanation,prediction,control,2,hidden,1.0,b,,a,,2,1,2,2,1.0,1865.140000000014
16,21.0,easy,EPC,explanation,prediction,control,3,hidden,2.0,a,,a,,3,1,1,3,0.0,2750.539999999979
16,21.0,easy,EPC,explanation,prediction,control,4,hidden,3.0,b,,a,,3,1,1,1,1.0,2722.4400000000023
16,21.0,easy,EPC,explanation,prediction,control,5,hidden,3.0,a,,b,,2,1,2,2,1.0,3960.979999999981
16,21.0,easy,EPC,explanation,prediction,control,1,visible,0.0,a,2.0,,3.0,a,b,a,a,1.0,947.3400000000256
16,21.0,easy,EPC,explanation,prediction,control,2,visible,0.0,a,2.0,,2.0,a,b,b,b,1.0,654.3400000000256
16,21.0,easy,EPC,explanation,prediction,control,3,visible,2.0,a,3.0,,3.0,a,b,b,a,0.0,1146.7000000000116
16,21.0,easy,EPC,explanation,prediction,control,4,visible,3.0,b,3.0,,3.0,a,b,b,a,0.0,1169.0200000000186
16,21.0,easy,EPC,explanation,prediction,control,5,visible,0.0,b,2.0,,3.0,a,b,a,a,1.0,926.280000000028
16,21.0,easy,EPC,explanation,prediction,control,1,hidden,3.0,,,,1.0,aa,ba,ba,ba,1.0,8549.400000000023
16,21.0,easy,EPC,explanation,prediction,control,2,hidden,2.0,,,,1.0,ab,aa,aa,ab,0.0,5843.280000000028
16,21.0,easy,EPC,explanation,prediction,control,3,hidden,0.0,,,,0.0,aa,ab,aa,ab,0.0,5561.979999999981
16,21.0,easy,EPC,explanation,prediction,control,4,hidden,3.0,,,,2.0,ab,ba,ab,ab,1.0,765.0599999999977
16,21.0,easy,EPC,explanation,prediction,control,5,hidden,0.0,,,,3.0,ab,aa,aa,aa,1.0,937.719999999972
18,21.0,easy,PCE,prediction,control,explanation,1,visible,2.0,b,2.0,a,,1,3,3,3,1.0,5525.350999999995
18,21.0,easy,PCE,prediction,control,explanation,2,visible,3.0,a,1.0,b,,3,0,0,0,1.0,4078.017999976146
18,21.0,easy,PCE,prediction,control,explanation,3,visible,1.0,b,0.0,b,,2,1,2,2,1.0,1901.7910000476693
18,21.0,easy,PCE,prediction,control,explanation,4,visible,1.0,a,0.0,a,,2,0,2,2,1.0,2667.519999952317
18,21.0,easy,PCE,prediction,control,explanation,5,visible,2.0,a,3.0,a,,3,1,1,1,1.0,1161.0719999999856
18,21.0,easy,PCE,prediction,control,explanation,1,hidden,2.0,a,,b,,0,3,3,3,1.0,5026.4739999761805
18,21.0,easy,PCE,prediction,control,explanation,2,hidden,3.0,a,,a,,2,1,2,1,0.0,2347.7299999523093
18,21.0,easy,PCE,prediction,control,explanation,3,hidden,3.0,a,,b,,2,1,2,2,1.0,2052.384999952337
18,21.0,easy,PCE,prediction,control,explanation,4,hidden,2.0,a,,b,,1,3,3,3,1.0,2752.786000000022
18,21.0,easy,PCE,prediction,control,explanation,5,hidden,0.0,a,,a,,1,0,0,1,0.0,2466.850999976159
18,21.0,easy,PCE,prediction,control,explanation,1,visible,2.0,b,2.0,,2.0,a,b,b,b,1.0,1074.9199999761768
18,21.0,easy,PCE,prediction,control,explanation,2,visible,0.0,b,2.0,,2.0,a,b,b,b,1.0,1402.1630000000005
18,21.0,easy,PCE,prediction,control,explanation,3,visible,0.0,a,2.0,,3.0,a,b,a,a,1.0,1741.7570000476553
18,21.0,easy,PCE,prediction,control,explanation,4,visible,0.0,a,2.0,,2.0,a,b,b,b,1.0,663.4290000238689
18,21.0,easy,PCE,prediction,control,explanation,5,visible,0.0,a,2.0,,0.0,a,b,a,a,1.0,1135.3959999523358
18,21.0,easy,PCE,prediction,control,explanation,1,hidden,0.0,,,,3.0,ab,aa,aa,aa,1.0,3210.5660000238568
18,21.0,easy,PCE,prediction,control,explanation,2,hidden,0.0,,,,0.0,aa,ab,aa,ab,0.0,2288.0920000238693
18,21.0,easy,PCE,prediction,control,explanation,3,hidden,0.0,,,,2.0,aa,bb,bb,bb,1.0,3163.1869999999763
18,21.0,easy,PCE,prediction,control,explanation,4,hidden,3.0,,,,2.0,aa,bb,aa,aa,1.0,3200.966999976139
18,21.0,easy,PCE,prediction,control,explanation,5,hidden,3.0,,,,1.0,aa,ba,ba,aa,0.0,4719.3249999761465
18,21.0,easy,PCE,prediction,control,explanation,1,visible,3.0,a,1.0,b,0.0,,,1,1,1.0,2469.5509999761707
18,21.0,easy,PCE,prediction,control,explanation,2,visible,0.0,a,2.0,b,2.0,,,2,2,1.0,580.3430000476656
18,21.0,easy,PCE,prediction,control,explanation,3,visible,0.0,b,2.0,b,2.0,,,2,1,0.0,4015.94099995232
18,21.0,easy,PCE,prediction,control,explanation,4,visible,2.0,a,0.0,b,2.0,,,1,2,0.0,552.7660000238684
18,21.0,easy,PCE,prediction,control,explanation,5,visible,3.0,a,0.0,a,2.0,,,1,2,0.0,4679.529000047711
18,21.0,easy,PCE,prediction,control,explanation,1,hidden,3.0,a,,b,0.0,,,1,1,1.0,1294.2380000476842
18,21.0,easy,PCE,prediction,control,explanation,2,hidden,3.0,a,,b,2.0,,,1,2,0.0,1419.684000023815
18,21.0,easy,PCE,prediction,control,explanation,3,hidden,0.0,b,,b,2.0,,,2,2,1.0,3188.467999999993
18,21.0,easy,PCE,prediction,control,explanation,4,hidden,0.0,a,,a,3.0,,,2,1,0.0,1299.4400000476744
18,21.0,easy,PCE,prediction,control,explanation,5,hidden,0.0,b,,a,0.0,,,2,2,1.0,2265.438000047696
17,21.0,easy,EPC,explanation,prediction,control,1,visible,0.0,b,2.0,a,0.0,,,2,2,1.0,6853.464000011911
17,21.0,easy,EPC,explanation,prediction,control,2,visible,0.0,a,2.0,b,2.0,,,2,2,1.0,2679.844000011916
17,21.0,easy,EPC,explanation,prediction,control,3,visible,3.0,a,1.0,b,0.0,,,1,2,0.0,1081.184999988065
17,21.0,easy,EPC,explanation,prediction,control,4,visible,3.0,a,1.0,a,0.0,,,1,2,0.0,12757.490000005955
17,21.0,easy,EPC,explanation,prediction,control,5,visible,0.0,b,2.0,a,3.0,,,2,2,1.0,3767.536000011925
17,21.0,easy,EPC,explanation,prediction,control,1,hidden,0.0,b,,a,0.0,,,2,2,1.0,2966.507999994036
17,21.0,easy,EPC,explanation,prediction,control,2,hidden,2.0,a,,a,2.0,,,1,2,0.0,2685.802999994048
17,21.0,easy,EPC,explanation,prediction,control,3,hidden,3.0,b,,a,0.0,,,2,2,1.0,4561.396000000008
17,21.0,easy,EPC,explanation,prediction,control,4,hidden,0.0,a,,a,0.0,,,2,2,1.0,835.0190000119328
17,21.0,easy,EPC,explanation,prediction,control,5,hidden,3.0,a,,b,2.0,,,1,2,0.0,746.3960000000079
17,21.0,easy,EPC,explanation,prediction,control,1,visible,0.0,b,2.0,b,,2,3,2,2,1.0,2682.4430000119028
17,21.0,easy,EPC,explanation,prediction,control,2,visible,3.0,b,3.0,a,,1,3,1,1,1.0,2478.5850000118958
17,21.0,easy,EPC,explanation,prediction,control,3,visible,3.0,b,3.0,b,,1,3,3,3,1.0,1126.243999994011
17,21.0,easy,EPC,explanation,prediction,control,4,visible,2.0,a,3.0,a,,0,3,0,0,1.0,2492.8780000059637
17,21.0,easy,EPC,explanation,prediction,control,5,visible,1.0,b,0.0,b,,2,1,2,2,1.0,786.1730000000098
17,21.0,easy,EPC,explanation,prediction,control,1,hidden,0.0,a,,a,,1,0,0,0,1.0,3099.0830000119167
17,21.0,easy,EPC,explanation,prediction,control,2,hidden,2.0,a,,a,,3,1,1,3,0.0,6153.039000011922
17,21.0,easy,EPC,explanation,prediction,control,3,hidden,3.0,a,,b,,2,1,2,2,1.0,4357.666000005964
17,21.0,easy,EPC,explanation,prediction,control,4,hidden,2.0,a,,b,,1,3,3,3,1.0,8600.016999994055
17,21.0,easy,EPC,explanation,prediction,control,5,hidden,3.0,b,,a,,3,1,1,1,1.0,5757.193999994022
17,21.0,easy,EPC,explanation,prediction,control,1,visible,3.0,b,3.0,,0.0,a,b,a,a,1.0,2374.60899999406
17,21.0,easy,EPC,explanation,prediction,control,2,visible,2.0,a,3.0,,3.0,a,b,b,b,1.0,814.6310000119265
17,21.0,easy,EPC,explanation,prediction,control,3,visible,0.0,a,2.0,,3.0,a,b,a,a,1.0,1450.9150000059744
17,21.0,easy,EPC,explanation,prediction,control,4,visible,0.0,b,2.0,,2.0,a,b,b,b,1.0,606.4240000059363
17,21.0,easy,EPC,explanation,prediction,control,5,visible,0.0,a,2.0,,2.0,a,b,b,b,1.0,481.35899998806417
17,21.0,easy,EPC,explanation,prediction,control,1,hidden,3.0,,,,1.0,aa,ba,ba,ba,1.0,5226.156000000017
17,21.0,easy,EPC,explanation,prediction,control,2,hidden,3.0,,,,2.0,aa,bb,aa,aa,1.0,5014.456999988062
17,21.0,easy,EPC,explanation,prediction,control,3,hidden,0.0,,,,0.0,aa,ab,aa,ab,0.0,6914.677000000025
17,21.0,easy,EPC,explanation,prediction,control,4,hidden,0.0,,,,2.0,aa,bb,bb,bb,1.0,505.7740000119084
17,21.0,easy,EPC,explanation,prediction,control,5,hidden,3.0,,,,3.0,bb,ba,bb,bb,1.0,2487.200000011944
37,21.0,easy,CEP,control,explanation,prediction,1,visible,0.0,b,2.0,,3.0,a,b,a,b,0.0,3829.0
37,21.0,easy,CEP,control,explanation,prediction,2,visible,2.0,b,2.0,,2.0,a,b,b,b,1.0,2168.0
37,21.0,easy,CEP,control,explanation,prediction,3,visible,0.0,a,2.0,,0.0,a,b,a,a,1.0,2517.0
37,21.0,easy,CEP,control,explanation,prediction,4,visible,3.0,b,3.0,,3.0,a,b,b,b,1.0,573.0
37,21.0,easy,CEP,control,explanation,prediction,5,visible,2.0,a,3.0,,3.0,a,b,b,b,1.0,4522.000000000233
37,21.0,easy,CEP,control,explanation,prediction,1,hidden,0.0,,,,2.0,aa,bb,bb,aa,0.0,4018.0
37,21.0,easy,CEP,control,explanation,prediction,2,hidden,0.0,,,,0.0,aa,ab,aa,ab,0.0,7862.0
37,21.0,easy,CEP,control,explanation,prediction,3,hidden,3.0,,,,2.0,aa,bb,aa,aa,1.0,2690.0
37,21.0,easy,CEP,control,explanation,prediction,4,hidden,3.0,,,,2.0,ab,ba,ab,ba,0.0,6160.0
37,21.0,easy,CEP,control,explanation,prediction,5,hidden,2.0,,,,3.0,aa,ab,ab,aa,0.0,1660.0000000002328
37,21.0,easy,CEP,control,explanation,prediction,1,visible,0.0,b,2.0,a,0.0,,,2,2,1.0,7274.0
37,21.0,easy,CEP,control,explanation,prediction,2,visible,3.0,a,0.0,a,2.0,,,1,2,0.0,900.0
37,21.0,easy,CEP,control,explanation,prediction,3,visible,2.0,a,0.0,a,2.0,,,1,2,0.0,2465.0
37,21.0,easy,CEP,control,explanation,prediction,4,visible,3.0,a,1.0,b,0.0,,,1,1,1.0,608.0000000002328
37,21.0,easy,CEP,control,explanation,prediction,5,visible,0.0,a,2.0,b,2.0,,,2,1,0.0,3622.0
37,21.0,easy,CEP,control,explanation,prediction,1,hidden,0.0,a,,a,3.0,,,2,2,1.0,3412.0
37,21.0,easy,CEP,control,explanation,prediction,2,hidden,3.0,a,,a,2.0,,,1,1,1.0,475.0
37,21.0,easy,CEP,control,explanation,prediction,3,hidden,0.0,b,,b,2.0,,,2,2,1.0,694.0
37,21.0,easy,CEP,control,explanation,prediction,4,hidden,2.0,b,,b,2.0,,,2,2,1.0,3541.0
37,21.0,easy,CEP,control,explanation,prediction,5,hidden,0.0,b,,a,0.0,,,2,2,1.0,7255.0
37,21.0,easy,CEP,control,explanation,prediction,1,visible,1.0,b,0.0,b,,2,1,2,2,1.0,9676.0
37,21.0,easy,CEP,control,explanation,prediction,2,visible,3.0,b,3.0,b,,1,3,3,3,1.0,6660.0
37,21.0,easy,CEP,control,explanation,prediction,3,visible,3.0,a,1.0,a,,0,1,0,0,1.0,9884.0
37,21.0,easy,CEP,control,explanation,prediction,4,visible,3.0,a,1.0,b,,3,0,0,0,1.0,12722.0
37,21.0,easy,CEP,control,explanation,prediction,5,visible,3.0,b,3.0,a,,1,3,1,1,1.0,13293.0
37,21.0,easy,CEP,control,explanation,prediction,1,hidden,2.0,a,,a,,3,1,1,3,0.0,8026.0
37,21.0,easy,CEP,control,explanation,prediction,2,hidden,2.0,a,,b,,0,3,3,0,0.0,12089.0
37,21.0,easy,CEP,control,explanation,prediction,3,hidden,0.0,b,,a,,3,0,0,0,1.0,624.0
37,21.0,easy,CEP,control,explanation,prediction,4,hidden,2.0,a,,b,,1,3,3,1,0.0,847.0
37,21.0,easy,CEP,control,explanation,prediction,5,hidden,2.0,b,,a,,1,3,3,3,1.0,8330.0
19,21.0,easy,PEC,prediction,explanation,control,1,visible,1.0,b,0.0,b,,2,1,2,2,1.0,1706.585000005958
19,21.0,easy,PEC,prediction,explanation,control,2,visible,1.0,a,0.0,a,,2,0,2,2,1.0,5679.724000005954
19,21.0,easy,PEC,prediction,explanation,control,3,visible,2.0,b,2.0,a,,1,3,3,3,1.0,3276.588999988074
19,21.0,easy,PEC,prediction,explanation,control,4,visible,0.0,b,2.0,b,,2,3,2,2,1.0,1665.3699999999951
19,21.0,easy,PEC,prediction,explanation,control,5,visible,2.0,a,3.0,a,,3,1,1,1,1.0,2231.762999988103
19,21.0,easy,PEC,prediction,explanation,control,1,hidden,0.0,b,,a,,3,0,0,0,1.0,7774.379000011948
19,21.0,easy,PEC,prediction,explanation,control,2,hidden,2.0,a,,b,,0,3,3,0,0.0,4737.984000005934
19,21.0,easy,PEC,prediction,explanation,control,3,hidden,3.0,a,,b,,2,1,2,2,1.0,1924.9080000119284
19,21.0,easy,PEC,prediction,explanation,control,4,hidden,3.0,a,,a,,2,1,2,2,1.0,6136.2050000059535
19,21.0,easy,PEC,prediction,explanation,control,5,hidden,2.0,a,,a,,3,1,1,3,0.0,2530.882999994036
19,21.0,easy,PEC,prediction,explanation,control,1,visible,3.0,a,1.0,a,0.0,,,1,2,0.0,15654.872000011906
19,21.0,easy,PEC,prediction,explanation,control,2,visible,0.0,a,2.0,a,0.0,,,2,2,1.0,4339.869999994058
19,21.0,easy,PEC,prediction,explanation,control,3,visible,3.0,a,1.0,b,0.0,,,1,1,1.0,2931.8960000119405
19,21.0,easy,PEC,prediction,explanation,control,4,visible,2.0,a,0.0,b,2.0,,,1,1,1.0,5110.598999999987
19,21.0,easy,PEC,prediction,explanation,control,5,visible,3.0,a,0.0,a,2.0,,,1,1,1.0,4520.888999994029
19,21.0,easy,PEC,prediction,explanation,control,1,hidden,2.0,a,,a,2.0,,,1,1,1.0,5710.93500001193
19,21.0,easy,PEC,prediction,explanation,control,2,hidden,0.0,a,,a,0.0,,,2,1,0.0,3854.7589999940246
19,21.0,easy,PEC,prediction,explanation,control,3,hidden,0.0,b,,a,0.0,,,2,2,1.0,3253.865000005986
19,21.0,easy,PEC,prediction,explanation,control,4,hidden,0.0,a,,a,3.0,,,2,2,1.0,4050.838999999978
19,21.0,easy,PEC,prediction,explanation,control,5,hidden,3.0,a,,a,2.0,,,1,2,0.0,769.1050000059768
19,21.0,easy,PEC,prediction,explanation,control,1,visible,3.0,b,3.0,,3.0,a,b,b,a,0.0,4826.681000011915
19,21.0,easy,PEC,prediction,explanation,control,2,visible,2.0,a,3.0,,1.0,a,b,a,a,1.0,1529.7150000119
19,21.0,easy,PEC,prediction,explanation,control,3,visible,2.0,b,2.0,,2.0,a,b,b,b,1.0,603.6229999880888
19,21.0,easy,PEC,prediction,explanation,control,4,visible,3.0,b,3.0,,0.0,a,b,a,a,1.0,4724.462999988056
19,21.0,easy,PEC,prediction,explanation,control,5,visible,0.0,b,2.0,,2.0,a,b,b,b,1.0,629.0969999880763
19,21.0,easy,PEC,prediction,explanation,control,1,hidden,2.0,,,,1.0,ab,aa,aa,aa,1.0,2510.9809999880963
19,21.0,easy,PEC,prediction,explanation,control,2,hidden,3.0,,,,1.0,aa,ba,ba,aa,0.0,1862.868999994011
19,21.0,easy,PEC,prediction,explanation,control,3,hidden,0.0,,,,2.0,aa,bb,bb,bb,1.0,3625.183999988076
19,21.0,easy,PEC,prediction,explanation,control,4,hidden,0.0,,,,0.0,aa,ab,aa,ab,0.0,4725.003000000026
19,21.0,easy,PEC,prediction,explanation,control,5,hidden,0.0,,,,3.0,ab,aa,aa,aa,1.0,3864.36299998808
20,21.0,easy,CEP,control,explanation,prediction,1,visible,3.0,b,3.0,,0.0,a,b,a,a,1.0,905.2900000476802
20,21.0,easy,CEP,control,explanation,prediction,2,visible,0.0,b,2.0,,3.0,a,b,a,b,0.0,960.9680000476948
20,21.0,easy,CEP,control,explanation,prediction,3,visible,3.0,b,3.0,,3.0,a,b,b,b,1.0,358.2000000476837
20,21.0,easy,CEP,control,explanation,prediction,4,visible,0.0,a,2.0,,2.0,a,b,b,b,1.0,1827.523000047688
20,21.0,easy,CEP,control,explanation,prediction,5,visible,2.0,a,3.0,,3.0,a,b,b,b,1.0,669.8780001430423
20,21.0,easy,CEP,control,explanation,prediction,1,hidden,0.0,,,,3.0,ab,aa,aa,ab,0.0,6891.59800004767
20,21.0,easy,CEP,control,explanation,prediction,2,hidden,2.0,,,,2.0,aa,bb,bb,bb,1.0,5223.153000143066
20,21.0,easy,CEP,control,explanation,prediction,3,hidden,3.0,,,,3.0,bb,ba,bb,bb,1.0,2437.422000047693
20,21.0,easy,CEP,control,explanation,prediction,4,hidden,2.0,,,,1.0,ab,aa,aa,aa,1.0,12268.727000000014
20,21.0,easy,CEP,control,explanation,prediction,5,hidden,3.0,,,,1.0,aa,ba,ba,ba,1.0,7456.785999999993
20,21.0,easy,CEP,control,explanation,prediction,1,visible,2.0,a,0.0,a,2.0,,,1,2,0.0,8476.542000000016
20,21.0,easy,CEP,control,explanation,prediction,2,visible,3.0,a,1.0,b,0.0,,,1,1,1.0,4872.461999952328
20,21.0,easy,CEP,control,explanation,prediction,3,visible,0.0,b,2.0,b,2.0,,,2,2,1.0,2044.685999952315
20,21.0,easy,CEP,control,explanation,prediction,4,visible,0.0,a,2.0,a,0.0,,,2,2,1.0,2746.6110000953777
20,21.0,easy,CEP,control,explanation,prediction,5,visible,0.0,b,2.0,a,0.0,,,2,2,1.0,1884.0100000953532
20,21.0,easy,CEP,control,explanation,prediction,1,hidden,2.0,a,,a,2.0,,,1,1,1.0,2392.3870001430623
20,21.0,easy,CEP,control,explanation,prediction,2,hidden,3.0,a,,b,2.0,,,1,2,0.0,735.8330000953865
20,21.0,easy,CEP,control,explanation,prediction,3,hidden,2.0,b,,b,2.0,,,2,2,1.0,2058.261999999988
20,21.0,easy,CEP,control,explanation,prediction,4,hidden,3.0,a,,a,2.0,,,1,2,0.0,623.2119999523275
20,21.0,easy,CEP,control,explanation,prediction,5,hidden,0.0,b,,a,0.0,,,2,1,0.0,4070.319000143034
20,21.0,easy,CEP,control,explanation,prediction,1,visible,3.0,b,3.0,b,,1,3,3,3,1.0,2198.3279999523074
20,21.0,easy,CEP,control,explanation,prediction,2,visible,0.0,b,2.0,b,,2,3,2,2,1.0,1673.6090000476688
20,21.0,easy,CEP,control,explanation,prediction,3,visible,1.0,a,0.0,a,,2,0,2,2,1.0,970.1899999523304
20,21.0,easy,CEP,control,explanation,prediction,4,visible,3.0,b,3.0,a,,1,3,1,1,1.0,815.0679999522981
20,21.0,easy,CEP,control,explanation,prediction,5,visible,1.0,b,0.0,b,,2,1,2,2,1.0,1922.112000095367
20,21.0,easy,CEP,control,explanation,prediction,1,hidden,3.0,b,,a,,3,1,1,1,1.0,2512.9739999999874
20,21.0,easy,CEP,control,explanation,prediction,2,hidden,0.0,b,,a,,3,0,0,3,0.0,2556.0709999999963
20,21.0,easy,CEP,control,explanation,prediction,3,hidden,3.0,a,,a,,2,1,2,1,0.0,14982.40600009536
20,21.0,easy,CEP,control,explanation,prediction,4,hidden,1.0,b,,a,,2,1,2,2,1.0,3157.0650000000023
20,21.0,easy,CEP,control,explanation,prediction,5,hidden,2.0,a,,a,,3,1,1,1,1.0,2286.26200004766
22,21.0,easy,PEC,prediction,explanation,control,1,visible,3.0,b,3.0,b,,1,3,3,1,0.0,6141.0
22,21.0,easy,PEC,prediction,explanation,control,2,visible,2.0,a,3.0,a,,0,3,0,0,1.0,6163.0
22,21.0,easy,PEC,prediction,explanation,control,3,visible,1.0,a,0.0,a,,2,0,2,2,1.0,8536.0
22,21.0,easy,PEC,prediction,explanation,control,4,visible,2.0,b,2.0,a,,1,3,3,3,1.0,2149.0
22,21.0,easy,PEC,prediction,explanation,control,5,visible,0.0,b,2.0,b,,2,3,2,2,1.0,2265.0
22,21.0,easy,PEC,prediction,explanation,control,1,hidden,2.0,a,,a,,3,1,1,1,1.0,2951.0
22,21.0,easy,PEC,prediction,explanation,control,2,hidden,0.0,a,,a,,1,0,0,1,0.0,5022.0
22,21.0,easy,PEC,prediction,explanation,control,3,hidden,1.0,b,,a,,2,1,2,2,1.0,2468.0
22,21.0,easy,PEC,prediction,explanation,control,4,hidden,3.0,b,,a,,3,1,1,1,1.0,1795.0
22,21.0,easy,PEC,prediction,explanation,control,5,hidden,2.0,b,,a,,1,3,3,3,1.0,5389.0
22,21.0,easy,PEC,prediction,explanation,control,1,visible,3.0,a,1.0,a,0.0,,,1,2,0.0,5533.0
22,21.0,easy,PEC,prediction,explanation,control,2,visible,0.0,a,2.0,b,2.0,,,2,2,1.0,3700.0
22,21.0,easy,PEC,prediction,explanation,control,3,visible,0.0,b,2.0,b,2.0,,,2,1,0.0,1727.0
22,21.0,easy,PEC,prediction,explanation,control,4,visible,0.0,b,2.0,a,0.0,,,2,1,0.0,3997.0
22,21.0,easy,PEC,prediction,explanation,control,5,visible,3.0,a,0.0,a,2.0,,,1,2,0.0,1967.0
22,21.0,easy,PEC,prediction,explanation,control,1,hidden,3.0,a,,b,0.0,,,1,2,0.0,1238.0
22,21.0,easy,PEC,prediction,explanation,control,2,hidden,3.0,a,,a,2.0,,,1,2,0.0,1378.0
22,21.0,easy,PEC,prediction,explanation,control,3,hidden,0.0,a,,a,3.0,,,2,1,0.0,825.0
22,21.0,easy,PEC,prediction,explanation,control,4,hidden,3.0,a,,b,2.0,,,1,2,0.0,595.0
22,21.0,easy,PEC,prediction,explanation,control,5,hidden,2.0,b,,b,2.0,,,2,1,0.0,1496.0
22,21.0,easy,PEC,prediction,explanation,control,1,visible,2.0,b,2.0,,2.0,a,b,b,b,1.0,1551.0
22,21.0,easy,PEC,prediction,explanation,control,2,visible,0.0,a,2.0,,0.0,a,b,a,a,1.0,1461.0
22,21.0,easy,PEC,prediction,explanation,control,3,visible,0.0,b,2.0,,2.0,a,b,b,b,1.0,944.0
22,21.0,easy,PEC,prediction,explanation,control,4,visible,0.0,b,2.0,,3.0,a,b,a,a,1.0,577.0
22,21.0,easy,PEC,prediction,explanation,control,5,visible,3.0,b,3.0,,3.0,a,b,b,a,0.0,624.0
22,21.0,easy,PEC,prediction,explanation,control,1,hidden,3.0,,,,2.0,aa,bb,aa,aa,1.0,5400.0
22,21.0,easy,PEC,prediction,explanation,control,2,hidden,0.0,,,,3.0,ab,aa,aa,ab,0.0,443.0
22,21.0,easy,PEC,prediction,explanation,control,3,hidden,0.0,,,,2.0,aa,bb,bb,bb,1.0,3354.0
22,21.0,easy,PEC,prediction,explanation,control,4,hidden,2.0,,,,2.0,aa,bb,bb,bb,1.0,2230.0
22,21.0,easy,PEC,prediction,explanation,control,5,hidden,2.0,,,,3.0,aa,ab,ab,aa,0.0,2398.0
23,21.0,easy,EPC,explanation,prediction,control,1,visible,0.0,b,2.0,b,2.0,,,2,2,1.0,6913.02899999998
23,21.0,easy,EPC,explanation,prediction,control,2,visible,3.0,a,1.0,b,0.0,,,1,2,0.0,2193.7609999999986
23,21.0,easy,EPC,explanation,prediction,control,3,visible,3.0,a,1.0,a,0.0,,,1,2,0.0,1244.5490000238642
23,21.0,easy,EPC,explanation,prediction,control,4,visible,2.0,a,0.0,a,2.0,,,1,2,0.0,5156.4250000238535
23,21.0,easy,EPC,explanation,prediction,control,5,visible,0.0,b,2.0,a,0.0,,,2,2,1.0,859.82300002384
23,21.0,easy,EPC,explanation,prediction,control,1,hidden,3.0,a,,b,2.0,,,1,2,0.0,8148.305999999982
23,21.0,easy,EPC,explanation,prediction,control,2,hidden,2.0,a,,a,2.0,,,1,2,0.0,3400.4530000238447
23,21.0,easy,EPC,explanation,prediction,control,3,hidden,3.0,a,,a,2.0,,,1,2,0.0,1874.344999999972
23,21.0,easy,EPC,explanation,prediction,control,4,hidden,2.0,b,,b,2.0,,,2,2,1.0,1421.774000023841
23,21.0,easy,EPC,explanation,prediction,control,5,hidden,0.0,b,,a,0.0,,,2,2,1.0,547.0940000238479
23,21.0,easy,EPC,explanation,prediction,control,1,visible,2.0,a,3.0,a,,3,1,1,3,0.0,5358.21100000001
23,21.0,easy,EPC,explanation,prediction,control,2,visible,3.0,b,3.0,a,,1,3,1,1,1.0,4775.646000023815
23,21.0,easy,EPC,explanation,prediction,control,3,visible,2.0,b,2.0,a,,1,3,3,1,0.0,6668.869000000006
23,21.0,easy,EPC,explanation,prediction,control,4,visible,2.0,a,3.0,a,,0,3,0,3,0.0,12104.206999999997
23,21.0,easy,EPC,explanation,prediction,control,5,visible,3.0,a,1.0,b,,3,0,0,3,0.0,2306.005000035744
23,21.0,easy,EPC,explanation,prediction,control,1,hidden,3.0,b,,a,,3,1,1,3,0.0,1244.739000035799
23,21.0,easy,EPC,explanation,prediction,control,2,hidden,2.0,a,,b,,1,3,3,3,1.0,7284.663000035798
23,21.0,easy,EPC,explanation,prediction,control,3,hidden,0.0,b,,a,,3,0,0,0,1.0,4089.3360000357497
23,21.0,easy,EPC,explanation,prediction,control,4,hidden,2.0,a,,b,,0,3,3,0,0.0,4092.054000000004
23,21.0,easy,EPC,explanation,prediction,control,5,hidden,3.0,a,,a,,2,1,2,2,1.0,1764.580000035814
23,21.0,easy,EPC,explanation,prediction,control,1,visible,0.0,b,2.0,,3.0,a,b,a,b,0.0,7540.602000035811
23,21.0,easy,EPC,explanation,prediction,control,2,visible,2.0,a,3.0,,1.0,a,b,a,a,1.0,1469.7750000118976
23,21.0,easy,EPC,explanation,prediction,control,3,visible,3.0,b,3.0,,0.0,a,b,a,b,0.0,2191.4460000238614
23,21.0,easy,EPC,explanation,prediction,control,4,visible,0.0,b,2.0,,2.0,a,b,b,b,1.0,4274.386000011931
23,21.0,easy,EPC,explanation,prediction,control,5,visible,0.0,a,2.0,,2.0,a,b,b,a,0.0,865.1160000119125
23,21.0,easy,EPC,explanation,prediction,control,1,hidden,2.0,,,,1.0,ab,aa,aa,aa,1.0,6189.602000011946
23,21.0,easy,EPC,explanation,prediction,control,2,hidden,3.0,,,,1.0,aa,ba,ba,ba,1.0,2677.555999988108
23,21.0,easy,EPC,explanation,prediction,control,3,hidden,0.0,,,,3.0,ab,aa,aa,aa,1.0,9324.263999988092
23,21.0,easy,EPC,explanation,prediction,control,4,hidden,3.0,,,,2.0,aa,bb,aa,bb,0.0,1294.3170000119137
23,21.0,easy,EPC,explanation,prediction,control,5,hidden,3.0,,,,3.0,bb,ba,bb,bb,1.0,3164.211999988067
21,21.0,easy,PEC,prediction,explanation,control,1,visible,2.0,a,3.0,a,,0,3,0,0,1.0,2341.078999999998
21,21.0,easy,PEC,prediction,explanation,control,2,visible,2.0,a,3.0,a,,3,1,1,3,0.0,2227.949000011926
21,21.0,easy,PEC,prediction,explanation,control,3,visible,2.0,b,2.0,a,,1,3,3,3,1.0,1777.9230000089449
21,21.0,easy,PEC,prediction,explanation,control,4,visible,3.0,b,3.0,b,,1,3,3,3,1.0,771.9690000089468
21,21.0,easy,PEC,prediction,explanation,control,5,visible,0.0,b,2.0,b,,2,3,2,2,1.0,1216.5780000029772
21,21.0,easy,PEC,prediction,explanation,control,1,hidden,2.0,b,,a,,1,3,3,1,0.0,3056.108000002976
21,21.0,easy,PEC,prediction,explanation,control,2,hidden,2.0,a,,b,,0,3,3,0,0.0,1308.5020000119112
21,21.0,easy,PEC,prediction,explanation,control,3,hidden,3.0,b,,a,,3,1,1,1,1.0,973.8420000119075
21,21.0,easy,PEC,prediction,explanation,control,4,hidden,2.0,a,,a,,3,1,1,3,0.0,1661.236000002973
21,21.0,easy,PEC,prediction,explanation,control,5,hidden,3.0,a,,b,,2,1,2,2,1.0,2239.2850000000035
21,21.0,easy,PEC,prediction,explanation,control,1,visible,3.0,a,1.0,b,0.0,,,1,1,1.0,5684.6970000089495
21,21.0,easy,PEC,prediction,explanation,control,2,visible,0.0,a,2.0,a,0.0,,,2,2,1.0,1762.800000002957
21,21.0,easy,PEC,prediction,explanation,control,3,visible,3.0,a,1.0,a,0.0,,,1,2,0.0,1164.499000005948
21,21.0,easy,PEC,prediction,explanation,control,4,visible,0.0,a,2.0,b,2.0,,,2,2,1.0,512.2010000089649
21,21.0,easy,PEC,prediction,explanation,control,5,visible,2.0,a,0.0,a,2.0,,,1,1,1.0,671.6430000059772
21,21.0,easy,PEC,prediction,explanation,control,1,hidden,0.0,a,,a,0.0,,,2,2,1.0,1335.7030000089435
21,21.0,easy,PEC,prediction,explanation,control,2,hidden,2.0,b,,b,2.0,,,2,1,0.0,805.5790000119014
21,21.0,easy,PEC,prediction,explanation,control,3,hidden,3.0,a,,a,2.0,,,1,1,1.0,831.7669999999925
21,21.0,easy,PEC,prediction,explanation,control,4,hidden,0.0,a,,a,3.0,,,2,1,0.0,3734.7550000000047
21,21.0,easy,PEC,prediction,explanation,control,5,hidden,0.0,b,,a,0.0,,,2,2,1.0,1672.4360000119195
21,21.0,easy,PEC,prediction,explanation,control,1,visible,0.0,a,2.0,,0.0,a,b,a,a,1.0,3339.584000008937
21,21.0,easy,PEC,prediction,explanation,control,2,visible,2.0,a,3.0,,3.0,a,b,b,a,0.0,1928.894000011904
21,21.0,easy,PEC,prediction,explanation,control,3,visible,2.0,b,2.0,,2.0,a,b,b,b,1.0,491.3370000119321
21,21.0,easy,PEC,prediction,explanation,control,4,visible,3.0,b,3.0,,0.0,a,b,a,b,0.0,1368.5990000059828
21,21.0,easy,PEC,prediction,explanation,control,5,visible,0.0,b,2.0,,2.0,a,b,b,b,1.0,1711.7720000059344
21,21.0,easy,PEC,prediction,explanation,control,1,hidden,3.0,,,,2.0,ab,ba,ab,ab,1.0,3810.754000000016
21,21.0,easy,PEC,prediction,explanation,control,2,hidden,3.0,,,,2.0,aa,bb,aa,bb,0.0,3167.6720000059577
21,21.0,easy,PEC,prediction,explanation,control,3,hidden,3.0,,,,1.0,aa,ba,ba,ba,1.0,3126.82000001194
21,21.0,easy,PEC,prediction,explanation,control,4,hidden,2.0,,,,2.0,aa,bb,bb,aa,0.0,1118.9310000089465
21,21.0,easy,PEC,prediction,explanation,control,5,hidden,0.0,,,,2.0,aa,bb,bb,aa,0.0,1644.6970000029542
25,21.0,easy,CPE,control,prediction,explanation,1,visible,0.0,b,2.0,,2.0,a,b,b,b,1.0,3500.322000005981
25,21.0,easy,CPE,control,prediction,explanation,2,visible,0.0,a,2.0,,2.0,a,b,b,b,1.0,2319.5519999940298
25,21.0,easy,CPE,control,prediction,explanation,3,visible,2.0,a,3.0,,3.0,a,b,b,b,1.0,3371.035000011907
25,21.0,easy,CPE,control,prediction,explanation,4,visible,0.0,b,2.0,,3.0,a,b,a,a,1.0,1563.3400000059628
25,21.0,easy,CPE,control,prediction,explanation,5,visible,3.0,b,3.0,,3.0,a,b,b,b,1.0,2383.4580000119167
25,21.0,easy,CPE,control,prediction,explanation,1,hidden,2.0,,,,1.0,ab,aa,aa,aa,1.0,7831.025000000023
25,21.0,easy,CPE,control,prediction,explanation,2,hidden,0.0,,,,2.0,aa,bb,bb,aa,0.0,6650.218000005989
25,21.0,easy,CPE,control,prediction,explanation,3,hidden,3.0,,,,3.0,bb,ba,bb,bb,1.0,4495.881000011927
25,21.0,easy,CPE,control,prediction,explanation,4,hidden,0.0,,,,3.0,ab,aa,aa,ab,0.0,5352.970000011905
25,21.0,easy,CPE,control,prediction,explanation,5,hidden,2.0,,,,2.0,aa,bb,bb,bb,1.0,4790.955999994068
25,21.0,easy,CPE,control,prediction,explanation,1,visible,1.0,a,0.0,a,,2,0,2,2,1.0,3590.44500001194
25,21.0,easy,CPE,control,prediction,explanation,2,visible,1.0,b,0.0,b,,2,1,2,2,1.0,2006.6879999880912
25,21.0,easy,CPE,control,prediction,explanation,3,visible,2.0,a,3.0,a,,0,3,0,0,1.0,2042.995000011928
25,21.0,easy,CPE,control,prediction,explanation,4,visible,0.0,b,2.0,b,,2,3,2,2,1.0,1179.4940000119386
25,21.0,easy,CPE,control,prediction,explanation,5,visible,3.0,a,1.0,a,,0,1,0,0,1.0,2126.143999999971
25,21.0,easy,CPE,control,prediction,explanation,1,hidden,1.0,b,,a,,2,1,2,1,0.0,6490.165000011912
25,21.0,easy,CPE,control,prediction,explanation,2,hidden,0.0,a,,a,,1,0,0,0,1.0,4668.185000005993
25,21.0,easy,CPE,control,prediction,explanation,3,hidden,2.0,b,,a,,1,3,3,1,0.0,3534.9779999881284
25,21.0,easy,CPE,control,prediction,explanation,4,hidden,3.0,a,,b,,2,1,2,2,1.0,4326.111999994027
25,21.0,easy,CPE,control,prediction,explanation,5,hidden,2.0,a,,b,,1,3,3,3,1.0,7876.417999988073
25,21.0,easy,CPE,control,prediction,explanation,1,visible,0.0,b,2.0,a,0.0,,,2,2,1.0,4119.828000005917
25,21.0,easy,CPE,control,prediction,explanation,2,visible,2.0,a,0.0,a,2.0,,,1,2,0.0,6554.88299998804
25,21.0,easy,CPE,control,prediction,explanation,3,visible,0.0,b,2.0,a,3.0,,,2,2,1.0,6197.998999988078
25,21.0,easy,CPE,control,prediction,explanation,4,visible,3.0,a,1.0,a,0.0,,,1,2,0.0,4954.183999994071
25,21.0,easy,CPE,control,prediction,explanation,5,visible,2.0,a,0.0,b,2.0,,,1,2,0.0,4689.83299998811
25,21.0,easy,CPE,control,prediction,explanation,1,hidden,0.0,a,,a,3.0,,,2,1,0.0,5334.409000011976
25,21.0,easy,CPE,control,prediction,explanation,2,hidden,0.0,a,,a,0.0,,,2,2,1.0,4071.148000011919
25,21.0,easy,CPE,control,prediction,explanation,3,hidden,0.0,b,,b,2.0,,,2,1,0.0,2781.712000011932
25,21.0,easy,CPE,control,prediction,explanation,4,hidden,3.0,a,,b,2.0,,,1,1,1.0,4166.401999994065
25,21.0,easy,CPE,control,prediction,explanation,5,hidden,3.0,a,,a,2.0,,,1,2,0.0,1546.6319999881089
27,21.0,easy,PEC,prediction,explanation,control,1,visible,1.0,b,0.0,b,,2,1,2,2,1.0,14667.000000000058
27,21.0,easy,PEC,prediction,explanation,control,2,visible,2.0,a,3.0,a,,0,3,0,0,1.0,7034.0
27,21.0,easy,PEC,prediction,explanation,control,3,visible,2.0,a,3.0,a,,3,1,1,1,1.0,8953.0
27,21.0,easy,PEC,prediction,explanation,control,4,visible,2.0,b,2.0,a,,1,3,3,3,1.0,8338.0
27,21.0,easy,PEC,prediction,explanation,control,5,visible,3.0,b,3.0,a,,1,3,1,1,1.0,7285.0
27,21.0,easy,PEC,prediction,explanation,control,1,hidden,2.0,b,,a,,1,3,3,1,0.0,10346.0
27,21.0,easy,PEC,prediction,explanation,control,2,hidden,2.0,a,,a,,3,1,1,3,0.0,11948.0
27,21.0,easy,PEC,prediction,explanation,control,3,hidden,3.0,a,,b,,2,1,2,2,1.0,11430.0
27,21.0,easy,PEC,prediction,explanation,control,4,hidden,0.0,b,,a,,3,0,0,0,1.0,6997.0
27,21.0,easy,PEC,prediction,explanation,control,5,hidden,2.0,a,,b,,0,3,3,0,0.0,7008.0
27,21.0,easy,PEC,prediction,explanation,control,1,visible,0.0,a,2.0,b,2.0,,,2,2,1.0,10004.0
27,21.0,easy,PEC,prediction,explanation,control,2,visible,0.0,b,2.0,a,0.0,,,2,2,1.0,8750.0
27,21.0,easy,PEC,prediction,explanation,control,3,visible,2.0,a,0.0,a,2.0,,,1,1,1.0,9169.0
27,21.0,easy,PEC,prediction,explanation,control,4,visible,3.0,a,1.0,b,0.0,,,1,1,1.0,7207.0
27,21.0,easy,PEC,prediction,explanation,control,5,visible,3.0,a,1.0,a,0.0,,,1,1,1.0,1581.0
27,21.0,easy,PEC,prediction,explanation,control,1,hidden,0.0,b,,a,0.0,,,2,2,1.0,3179.0
27,21.0,easy,PEC,prediction,explanation,control,2,hidden,2.0,b,,b,2.0,,,2,2,1.0,6993.0
27,21.0,easy,PEC,prediction,explanation,control,3,hidden,3.0,b,,a,0.0,,,2,2,1.0,4627.0
27,21.0,easy,PEC,prediction,explanation,control,4,hidden,2.0,a,,a,2.0,,,1,1,1.0,1507.0000000001164
27,21.0,easy,PEC,prediction,explanation,control,5,hidden,3.0,a,,b,0.0,,,1,2,0.0,12103.0
27,21.0,easy,PEC,prediction,explanation,control,1,visible,0.0,a,2.0,,2.0,a,b,b,b,1.0,5439.0
27,21.0,easy,PEC,prediction,explanation,control,2,visible,0.0,a,2.0,,0.0,a,b,a,a,1.0,4400.0
27,21.0,easy,PEC,prediction,explanation,control,3,visible,0.0,b,2.0,,3.0,a,b,a,a,1.0,2273.0
27,21.0,easy,PEC,prediction,explanation,control,4,visible,2.0,a,3.0,,3.0,a,b,b,b,1.0,5073.0
27,21.0,easy,PEC,prediction,explanation,control,5,visible,2.0,b,2.0,,2.0,a,b,b,b,1.0,1193.0
27,21.0,easy,PEC,prediction,explanation,control,1,hidden,0.0,,,,2.0,aa,bb,bb,bb,1.0,3650.0
27,21.0,easy,PEC,prediction,explanation,control,2,hidden,2.0,,,,2.0,aa,bb,bb,bb,1.0,4493.0
27,21.0,easy,PEC,prediction,explanation,control,3,hidden,2.0,,,,3.0,aa,ab,ab,aa,0.0,2233.0
27,21.0,easy,PEC,prediction,explanation,control,4,hidden,0.0,,,,0.0,aa,ab,aa,aa,1.0,1405.0
27,21.0,easy,PEC,prediction,explanation,control,5,hidden,0.0,,,,3.0,ab,aa,aa,ab,0.0,2909.0
24,21.0,easy,EPC,explanation,prediction,control,1,visible,3.0,a,1.0,a,0.0,,,1,2,0.0,1558.386999999988
24,21.0,easy,EPC,explanation,prediction,control,2,visible,0.0,a,2.0,a,0.0,,,2,2,1.0,791.0150000059512
24,21.0,easy,EPC,explanation,prediction,control,3,visible,0.0,a,2.0,b,2.0,,,2,1,0.0,991.8830000119342
24,21.0,easy,EPC,explanation,prediction,control,4,visible,3.0,a,0.0,a,2.0,,,1,2,0.0,3107.250000011933
24,21.0,easy,EPC,explanation,prediction,control,5,visible,0.0,b,2.0,a,0.0,,,2,1,0.0,863.3290000119305
24,21.0,easy,EPC,explanation,prediction,control,1,hidden,2.0,b,,b,2.0,,,2,2,1.0,619.9870000238298
24,21.0,easy,EPC,explanation,prediction,control,2,hidden,3.0,a,,b,0.0,,,1,1,1.0,1143.9420000119137
24,21.0,easy,EPC,explanation,prediction,control,3,hidden,3.0,a,,a,2.0,,,1,1,1.0,896.4210000178718
24,21.0,easy,EPC,explanation,prediction,control,4,hidden,2.0,a,,a,2.0,,,1,1,1.0,560.9160000178672
24,21.0,easy,EPC,explanation,prediction,control,5,hidden,0.0,a,,a,0.0,,,2,1,0.0,615.6340000178898
24,21.0,easy,EPC,explanation,prediction,control,1,visible,0.0,b,2.0,b,,2,3,2,2,1.0,6857.790000000008
24,21.0,easy,EPC,explanation,prediction,control,2,visible,2.0,a,3.0,a,,0,3,0,0,1.0,5524.096000011923
24,21.0,easy,EPC,explanation,prediction,control,3,visible,3.0,b,3.0,b,,1,3,3,3,1.0,1199.9990000119433
24,21.0,easy,EPC,explanation,prediction,control,4,visible,2.0,b,2.0,a,,1,3,3,1,0.0,2872.36200000596
24,21.0,easy,EPC,explanation,prediction,control,5,visible,1.0,a,0.0,a,,2,0,2,2,1.0,2571.969999999972
24,21.0,easy,EPC,explanation,prediction,control,1,hidden,0.0,a,,a,,1,0,0,1,0.0,4252.325000011944
24,21.0,easy,EPC,explanation,prediction,control,2,hidden,2.0,a,,a,,3,1,1,1,1.0,3912.057000005967
24,21.0,easy,EPC,explanation,prediction,control,3,hidden,1.0,b,,a,,2,1,2,2,1.0,1774.511999999988
24,21.0,easy,EPC,explanation,prediction,control,4,hidden,2.0,a,,b,,0,3,3,0,0.0,4185.03500000597
24,21.0,easy,EPC,explanation,prediction,control,5,hidden,3.0,a,,b,,2,1,2,2,1.0,5155.902000000002
24,21.0,easy,EPC,explanation,prediction,control,1,visible,2.0,b,2.0,,2.0,a,b,b,b,1.0,1922.2460000119167
24,21.0,easy,EPC,explanation,prediction,control,2,visible,2.0,a,3.0,,3.0,a,b,b,b,1.0,1767.0200000059558
24,21.0,easy,EPC,explanation,prediction,control,3,visible,0.0,a,2.0,,3.0,a,b,a,a,1.0,2967.871000011917
24,21.0,easy,EPC,explanation,prediction,control,4,visible,0.0,b,2.0,,2.0,a,b,b,b,1.0,808.533000023861
24,21.0,easy,EPC,explanation,prediction,control,5,visible,2.0,a,3.0,,1.0,a,b,a,a,1.0,1645.3420000119368
24,21.0,easy,EPC,explanation,prediction,control,1,hidden,0.0,,,,0.0,aa,ab,aa,ab,0.0,15811.27500000596
24,21.0,easy,EPC,explanation,prediction,control,2,hidden,2.0,,,,2.0,aa,bb,bb,bb,1.0,2750.912000017881
24,21.0,easy,EPC,explanation,prediction,control,3,hidden,3.0,,,,1.0,aa,ba,ba,ba,1.0,4609.037000017881
24,21.0,easy,EPC,explanation,prediction,control,4,hidden,3.0,,,,3.0,bb,ba,bb,bb,1.0,1637.4860000059707
24,21.0,easy,EPC,explanation,prediction,control,5,hidden,3.0,,,,2.0,ab,ba,ab,ab,1.0,3641.253000023833
28,21.0,easy,PCE,prediction,control,explanation,1,visible,0.0,b,2.0,b,,2,3,2,2,1.0,3500.8639999761363
28,21.0,easy,PCE,prediction,control,explanation,2,visible,2.0,a,3.0,a,,0,3,0,0,1.0,2482.0019999523065
28,21.0,easy,PCE,prediction,control,explanation,3,visible,1.0,b,0.0,b,,2,1,2,1,0.0,5407.92999998806
28,21.0,easy,PCE,prediction,control,explanation,4,visible,3.0,b,3.0,b,,1,3,3,3,1.0,762.9880000000121
28,21.0,easy,PCE,prediction,control,explanation,5,visible,3.0,a,1.0,b,,3,0,0,0,1.0,2483.784999964235
28,21.0,easy,PCE,prediction,control,explanation,1,hidden,2.0,a,,a,,3,1,1,3,0.0,4105.088999964239
28,21.0,easy,PCE,prediction,control,explanation,2,hidden,2.0,a,,b,,0,3,3,0,0.0,5835.758999976155
28,21.0,easy,PCE,prediction,control,explanation,3,hidden,0.0,b,,a,,3,0,0,3,0.0,6132.980999952299
28,21.0,easy,PCE,prediction,control,explanation,4,hidden,0.0,a,,a,,1,0,0,0,1.0,6472.5259999523405
28,21.0,easy,PCE,prediction,control,explanation,5,hidden,3.0,a,,b,,2,1,2,2,1.0,7009.686999964237
28,21.0,easy,PCE,prediction,control,explanation,1,visible,3.0,b,3.0,,0.0,a,b,a,a,1.0,2014.943999988085
28,21.0,easy,PCE,prediction,control,explanation,2,visible,2.0,a,3.0,,1.0,a,b,a,a,1.0,1576.311999988102
28,21.0,easy,PCE,prediction,control,explanation,3,visible,3.0,b,3.0,,3.0,a,b,b,b,1.0,1715.495999988052
28,21.0,easy,PCE,prediction,control,explanation,4,visible,0.0,b,2.0,,2.0,a,b,b,b,1.0,1710.6929999880958
28,21.0,easy,PCE,prediction,control,explanation,5,visible,0.0,a,2.0,,0.0,a,b,a,a,1.0,6160.682999952289
28,21.0,easy,PCE,prediction,control,explanation,1,hidden,2.0,,,,3.0,aa,ab,ab,aa,0.0,3094.7109999880777
28,21.0,easy,PCE,prediction,control,explanation,2,hidden,0.0,,,,0.0,aa,ab,aa,ab,0.0,3897.465999952343
28,21.0,easy,PCE,prediction,control,explanation,3,hidden,0.0,,,,3.0,ab,aa,aa,aa,1.0,3031.282999999996
28,21.0,easy,PCE,prediction,control,explanation,4,hidden,3.0,,,,2.0,aa,bb,aa,aa,1.0,7046.707999999984
28,21.0,easy,PCE,prediction,control,explanation,5,hidden,0.0,,,,2.0,aa,bb,bb,bb,1.0,3236.338999952306
28,21.0,easy,PCE,prediction,control,explanation,1,visible,0.0,a,2.0,a,0.0,,,2,2,1.0,6209.951999976183
28,21.0,easy,PCE,prediction,control,explanation,2,visible,2.0,a,0.0,b,2.0,,,1,1,1.0,5935.414999964181
28,21.0,easy,PCE,prediction,control,explanation,3,visible,3.0,a,0.0,a,2.0,,,1,2,0.0,4652.656999952276
28,21.0,easy,PCE,prediction,control,explanation,4,visible,0.0,b,2.0,a,3.0,,,2,2,1.0,3091.07799996424
28,21.0,easy,PCE,prediction,control,explanation,5,visible,2.0,a,0.0,a,2.0,,,1,2,0.0,5572.040999964229
28,21.0,easy,PCE,prediction,control,explanation,1,hidden,3.0,b,,a,0.0,,,2,2,1.0,1712.7140000000363
28,21.0,easy,PCE,prediction,control,explanation,2,hidden,2.0,a,,a,2.0,,,1,1,1.0,2623.539999952307
28,21.0,easy,PCE,prediction,control,explanation,3,hidden,0.0,b,,b,2.0,,,2,1,0.0,3493.679999952321
28,21.0,easy,PCE,prediction,control,explanation,4,hidden,0.0,a,,a,0.0,,,2,1,0.0,652.6269999642391
28,21.0,easy,PCE,prediction,control,explanation,5,hidden,2.0,b,,b,2.0,,,2,1,0.0,3697.869999988121
29,21.0,easy,EPC,explanation,prediction,control,1,visible,3.0,a,1.0,a,0.0,,,1,2,0.0,3344.872999994026
29,21.0,easy,EPC,explanation,prediction,control,2,visible,0.0,b,2.0,a,3.0,,,2,2,1.0,1132.647999994049
29,21.0,easy,EPC,explanation,prediction,control,3,visible,0.0,b,2.0,b,2.0,,,2,1,0.0,1734.5899999999965
29,21.0,easy,EPC,explanation,prediction,control,4,visible,3.0,a,0.0,a,2.0,,,1,2,0.0,374.6139999940351
29,21.0,easy,EPC,explanation,prediction,control,5,visible,2.0,a,0.0,b,2.0,,,1,1,1.0,910.5419999999868
29,21.0,easy,EPC,explanation,prediction,control,1,hidden,0.0,b,,b,2.0,,,2,2,1.0,731.8990000000049
29,21.0,easy,EPC,explanation,prediction,control,2,hidden,2.0,a,,a,2.0,,,1,2,0.0,396.7960000000021
29,21.0,easy,EPC,explanation,prediction,control,3,hidden,2.0,b,,b,2.0,,,2,2,1.0,4158.106999994052
29,21.0,easy,EPC,explanation,prediction,control,4,hidden,0.0,a,,a,0.0,,,2,2,1.0,865.2639999999956
29,21.0,easy,EPC,explanation,prediction,control,5,hidden,0.0,a,,a,3.0,,,2,2,1.0,365.2069999999949
29,21.0,easy,EPC,explanation,prediction,control,1,visible,3.0,b,3.0,a,,1,3,1,1,1.0,812.1749999999884
29,21.0,easy,EPC,explanation,prediction,control,2,visible,3.0,a,1.0,a,,0,1,0,1,0.0,677.6810000000114
29,21.0,easy,EPC,explanation,prediction,control,3,visible,2.0,a,3.0,a,,3,1,1,3,0.0,1485.1549999999988
29,21.0,easy,EPC,explanation,prediction,control,4,visible,1.0,a,0.0,a,,2,0,2,2,1.0,1672.0480000000098
29,21.0,easy,EPC,explanation,prediction,control,5,visible,0.0,b,2.0,b,,2,3,2,3,0.0,1158.4459999999965
29,21.0,easy,EPC,explanation,prediction,control,1,hidden,2.0,a,,b,,1,3,3,1,0.0,525.6219999985187
29,21.0,easy,EPC,explanation,prediction,control,2,hidden,3.0,b,,a,,3,1,1,3,0.0,790.0370000000112
29,21.0,easy,EPC,explanation,prediction,control,3,hidden,3.0,a,,b,,2,1,2,2,1.0,751.293999998481
29,21.0,easy,EPC,explanation,prediction,control,4,hidden,3.0,a,,a,,2,1,2,1,0.0,336.4089999999851
29,21.0,easy,EPC,explanation,prediction,control,5,hidden,0.0,a,,a,,1,0,0,1,0.0,454.0929999999935
29,21.0,easy,EPC,explanation,prediction,control,1,visible,0.0,a,2.0,,3.0,a,b,a,a,1.0,732.3979999999865
29,21.0,easy,EPC,explanation,prediction,control,2,visible,0.0,a,2.0,,0.0,a,b,a,b,0.0,263.2689999999712
29,21.0,easy,EPC,explanation,prediction,control,3,visible,2.0,a,3.0,,1.0,a,b,a,a,1.0,157.40700000000652
29,21.0,easy,EPC,explanation,prediction,control,4,visible,0.0,a,2.0,,2.0,a,b,b,b,1.0,249.6350000000093
29,21.0,easy,EPC,explanation,prediction,control,5,visible,0.0,b,2.0,,2.0,a,b,b,a,0.0,332.6219999999739
29,21.0,easy,EPC,explanation,prediction,control,1,hidden,2.0,,,,1.0,ab,aa,aa,aa,1.0,1372.408999999985
29,21.0,easy,EPC,explanation,prediction,control,2,hidden,3.0,,,,2.0,aa,bb,aa,aa,1.0,495.3139999984997
29,21.0,easy,EPC,explanation,prediction,control,3,hidden,3.0,,,,3.0,bb,ba,bb,ba,0.0,914.380999999994
29,21.0,easy,EPC,explanation,prediction,control,4,hidden,3.0,,,,1.0,aa,ba,ba,aa,0.0,718.7430000000168
29,21.0,easy,EPC,explanation,prediction,control,5,hidden,2.0,,,,3.0,aa,ab,ab,ab,1.0,786.4799999999814
26,21.0,easy,ECP,explanation,control,prediction,1,visible,2.0,a,0.0,b,2.0,,,1,2,0.0,5697.0
26,21.0,easy,ECP,explanation,control,prediction,2,visible,2.0,a,0.0,a,2.0,,,1,1,1.0,5771.0
26,21.0,easy,ECP,explanation,control,prediction,3,visible,3.0,a,1.0,b,0.0,,,1,1,1.0,7517.0
26,21.0,easy,ECP,explanation,control,prediction,4,visible,0.0,a,2.0,b,2.0,,,2,2,1.0,7044.0
26,21.0,easy,ECP,explanation,control,prediction,5,visible,3.0,a,1.0,a,0.0,,,1,2,0.0,3876.0
26,21.0,easy,ECP,explanation,control,prediction,1,hidden,2.0,a,,a,2.0,,,1,2,0.0,3178.0
26,21.0,easy,ECP,explanation,control,prediction,2,hidden,0.0,b,,b,2.0,,,2,1,0.0,3242.0
26,21.0,easy,ECP,explanation,control,prediction,3,hidden,3.0,a,,b,2.0,,,1,1,1.0,4872.0
26,21.0,easy,ECP,explanation,control,prediction,4,hidden,2.0,b,,b,2.0,,,2,2,1.0,2038.0
26,21.0,easy,ECP,explanation,control,prediction,5,hidden,0.0,a,,a,3.0,,,2,2,1.0,1949.0
26,21.0,easy,ECP,explanation,control,prediction,1,visible,3.0,b,3.0,,3.0,a,b,b,b,1.0,2728.0
26,21.0,easy,ECP,explanation,control,prediction,2,visible,2.0,b,2.0,,2.0,a,b,b,b,1.0,592.0
26,21.0,easy,ECP,explanation,control,prediction,3,visible,0.0,a,2.0,,3.0,a,b,a,a,1.0,1824.0
26,21.0,easy,ECP,explanation,control,prediction,4,visible,0.0,b,2.0,,2.0,a,b,b,b,1.0,1372.0
26,21.0,easy,ECP,explanation,control,prediction,5,visible,0.0,a,2.0,,2.0,a,b,b,b,1.0,3010.0
26,21.0,easy,ECP,explanation,control,prediction,1,hidden,0.0,,,,2.0,aa,bb,bb,aa,0.0,8131.0
26,21.0,easy,ECP,explanation,control,prediction,2,hidden,2.0,,,,1.0,ab,aa,aa,aa,1.0,3299.0
26,21.0,easy,ECP,explanation,control,prediction,3,hidden,3.0,,,,2.0,ab,ba,ab,ab,1.0,5754.0
26,21.0,easy,ECP,explanation,control,prediction,4,hidden,0.0,,,,0.0,aa,ab,aa,ab,0.0,6531.0
26,21.0,easy,ECP,explanation,control,prediction,5,hidden,0.0,,,,3.0,ab,aa,aa,aa,1.0,3807.0
26,21.0,easy,ECP,explanation,control,prediction,1,visible,3.0,b,3.0,a,,1,3,1,1,1.0,2134.0
26,21.0,easy,ECP,explanation,control,prediction,2,visible,2.0,a,3.0,a,,0,3,0,3,0.0,5649.0
26,21.0,easy,ECP,explanation,control,prediction,3,visible,0.0,b,2.0,b,,2,3,2,2,1.0,2350.0
26,21.0,easy,ECP,explanation,control,prediction,4,visible,1.0,b,0.0,b,,2,1,2,2,1.0,6041.0
26,21.0,easy,ECP,explanation,control,prediction,5,visible,2.0,a,3.0,a,,3,1,1,1,1.0,5040.0
26,21.0,easy,ECP,explanation,control,prediction,1,hidden,2.0,a,,b,,1,3,3,3,1.0,3083.0
26,21.0,easy,ECP,explanation,control,prediction,2,hidden,3.0,a,,a,,2,1,2,1,0.0,3034.0
26,21.0,easy,ECP,explanation,control,prediction,3,hidden,3.0,b,,a,,3,1,1,1,1.0,3697.0
26,21.0,easy,ECP,explanation,control,prediction,4,hidden,3.0,a,,b,,2,1,2,1,0.0,2323.0
26,21.0,easy,ECP,explanation,control,prediction,5,hidden,0.0,a,,a,,1,0,0,1,0.0,3411.0
32,21.0,easy,CEP,control,explanation,prediction,1,visible,0.0,a,2.0,,0.0,a,b,a,a,1.0,2311.026999618509
32,21.0,easy,CEP,control,explanation,prediction,2,visible,0.0,b,2.0,,2.0,a,b,b,b,1.0,2101.748999809264
32,21.0,easy,CEP,control,explanation,prediction,3,visible,0.0,a,2.0,,2.0,a,b,b,b,1.0,2176.8759996185545
32,21.0,easy,CEP,control,explanation,prediction,4,visible,2.0,b,2.0,,2.0,a,b,b,b,1.0,1436.1249992370722
32,21.0,easy,CEP,control,explanation,prediction,5,visible,2.0,a,3.0,,1.0,a,b,a,a,1.0,1174.959999618528
32,21.0,easy,CEP,control,explanation,prediction,1,hidden,2.0,,,,1.0,ab,aa,aa,ab,0.0,8314.929999237065
32,21.0,easy,CEP,control,explanation,prediction,2,hidden,3.0,,,,2.0,ab,ba,ab,ab,1.0,3621.378999237088
32,21.0,easy,CEP,control,explanation,prediction,3,hidden,2.0,,,,2.0,aa,bb,bb,bb,1.0,2551.273999237048
32,21.0,easy,CEP,control,explanation,prediction,4,hidden,3.0,,,,3.0,bb,ba,bb,ba,0.0,2737.7799994277884
32,21.0,easy,CEP,control,explanation,prediction,5,hidden,3.0,,,,1.0,aa,ba,ba,ba,1.0,1668.932999237033
32,21.0,easy,CEP,control,explanation,prediction,1,visible,2.0,a,0.0,a,2.0,,,1,2,0.0,6125.600999618531
32,21.0,easy,CEP,control,explanation,prediction,2,visible,3.0,a,1.0,b,0.0,,,1,1,1.0,2720.2249998092884
32,21.0,easy,CEP,control,explanation,prediction,3,visible,0.0,a,2.0,a,0.0,,,2,2,1.0,2586.76899942779
32,21.0,easy,CEP,control,explanation,prediction,4,visible,2.0,a,0.0,b,2.0,,,1,2,0.0,1419.1649994277395
32,21.0,easy,CEP,control,explanation,prediction,5,visible,3.0,a,0.0,a,2.0,,,1,1,1.0,3383.87799923704
32,21.0,easy,CEP,control,explanation,prediction,1,hidden,0.0,b,,a,0.0,,,2,2,1.0,3994.641999237007
32,21.0,easy,CEP,control,explanation,prediction,2,hidden,3.0,a,,b,0.0,,,1,1,1.0,1638.596999237081
32,21.0,easy,CEP,control,explanation,prediction,3,hidden,0.0,a,,a,0.0,,,2,1,0.0,1946.8729996185284
32,21.0,easy,CEP,control,explanation,prediction,4,hidden,0.0,b,,b,2.0,,,2,2,1.0,2120.771999618504
32,21.0,easy,CEP,control,explanation,prediction,5,hidden,0.0,a,,a,3.0,,,2,1,0.0,1230.5879994278075
32,21.0,easy,CEP,control,explanation,prediction,1,visible,2.0,b,2.0,a,,1,3,3,3,1.0,2606.065999809304
32,21.0,easy,CEP,control,explanation,prediction,2,visible,1.0,b,0.0,b,,2,1,2,2,1.0,1444.5919992370764
32,21.0,easy,CEP,control,explanation,prediction,3,visible,3.0,b,3.0,b,,1,3,3,1,0.0,2998.4769999999558
32,21.0,easy,CEP,control,explanation,prediction,4,visible,3.0,b,3.0,a,,1,3,1,1,1.0,2475.4509998093126
32,21.0,easy,CEP,control,explanation,prediction,5,visible,2.0,a,3.0,a,,0,3,0,0,1.0,3818.3149992370745
32,21.0,easy,CEP,control,explanation,prediction,1,hidden,2.0,a,,a,,3,1,1,1,1.0,4453.808999618515
32,21.0,easy,CEP,control,explanation,prediction,2,hidden,2.0,b,,a,,1,3,3,3,1.0,3914.4109998092754
32,21.0,easy,CEP,control,explanation,prediction,3,hidden,3.0,a,,a,,2,1,2,1,0.0,4295.673999618506
32,21.0,easy,CEP,control,explanation,prediction,4,hidden,3.0,b,,a,,3,1,1,1,1.0,2885.0149998092093
32,21.0,easy,CEP,control,explanation,prediction,5,hidden,1.0,b,,a,,2,1,2,1,0.0,3393.7099999999627
30,21.0,easy,PCE,prediction,control,explanation,1,visible,3.0,a,1.0,a,,0,1,0,0,1.0,2605.0
30,21.0,easy,PCE,prediction,control,explanation,2,visible,3.0,b,3.0,b,,1,3,3,3,1.0,998.0
30,21.0,easy,PCE,prediction,control,explanation,3,visible,3.0,b,3.0,a,,1,3,1,1,1.0,4129.0
30,21.0,easy,PCE,prediction,control,explanation,4,visible,1.0,a,0.0,a,,2,0,2,2,1.0,769.0
30,21.0,easy,PCE,prediction,control,explanation,5,visible,2.0,a,3.0,a,,3,1,1,1,1.0,834.0000000000291
30,21.0,easy,PCE,prediction,control,explanation,1,hidden,0.0,a,,a,,1,0,0,1,0.0,2979.0
30,21.0,easy,PCE,prediction,control,explanation,2,hidden,0.0,b,,a,,3,0,0,0,1.0,6131.0
30,21.0,easy,PCE,prediction,control,explanation,3,hidden,3.0,b,,a,,3,1,1,1,1.0,5962.0
30,21.0,easy,PCE,prediction,control,explanation,4,hidden,2.0,b,,a,,1,3,3,1,0.0,2861.0
30,21.0,easy,PCE,prediction,control,explanation,5,hidden,2.0,a,,b,,1,3,3,3,1.0,1467.0
30,21.0,easy,PCE,prediction,control,explanation,1,visible,0.0,a,2.0,,2.0,a,b,b,a,0.0,598.0
30,21.0,easy,PCE,prediction,control,explanation,2,visible,2.0,b,2.0,,2.0,a,b,b,b,1.0,755.0
30,21.0,easy,PCE,prediction,control,explanation,3,visible,3.0,b,3.0,,0.0,a,b,a,a,1.0,675.0
30,21.0,easy,PCE,prediction,control,explanation,4,visible,2.0,a,3.0,,3.0,a,b,b,b,1.0,661.0
30,21.0,easy,PCE,prediction,control,explanation,5,visible,0.0,b,2.0,,3.0,a,b,a,b,0.0,863.0000000000582
30,21.0,easy,PCE,prediction,control,explanation,1,hidden,0.0,,,,0.0,aa,ab,aa,aa,1.0,3905.0
30,21.0,easy,PCE,prediction,control,explanation,2,hidden,0.0,,,,2.0,aa,bb,bb,aa,0.0,1249.0
30,21.0,easy,PCE,prediction,control,explanation,3,hidden,3.0,,,,1.0,aa,ba,ba,ba,1.0,1273.0
30,21.0,easy,PCE,prediction,control,explanation,4,hidden,2.0,,,,3.0,aa,ab,ab,ab,1.0,917.0000000000582
30,21.0,easy,PCE,prediction,control,explanation,5,hidden,0.0,,,,3.0,ab,aa,aa,ab,0.0,960.0
30,21.0,easy,PCE,prediction,control,explanation,1,visible,0.0,a,2.0,b,2.0,,,2,1,0.0,2426.0
30,21.0,easy,PCE,prediction,control,explanation,2,visible,0.0,b,2.0,b,2.0,,,2,2,1.0,948.0000000000582
30,21.0,easy,PCE,prediction,control,explanation,3,visible,2.0,a,0.0,a,2.0,,,1,2,0.0,3444.0
30,21.0,easy,PCE,prediction,control,explanation,4,visible,3.0,a,1.0,a,0.0,,,1,1,1.0,539.0
30,21.0,easy,PCE,prediction,control,explanation,5,visible,3.0,a,1.0,b,0.0,,,1,2,0.0,1867.0
30,21.0,easy,PCE,prediction,control,explanation,1,hidden,0.0,a,,a,3.0,,,2,2,1.0,495.0
30,21.0,easy,PCE,prediction,control,explanation,2,hidden,3.0,a,,b,0.0,,,1,1,1.0,794.0
30,21.0,easy,PCE,prediction,control,explanation,3,hidden,3.0,a,,b,2.0,,,1,1,1.0,1025.0
30,21.0,easy,PCE,prediction,control,explanation,4,hidden,0.0,b,,b,2.0,,,2,2,1.0,2662.0
30,21.0,easy,PCE,prediction,control,explanation,5,hidden,2.0,a,,a,2.0,,,1,2,0.0,430.0
31,21.0,easy,PEC,prediction,explanation,control,1,visible,1.0,a,0.0,a,,2,0,2,2,1.0,4587.092000000004
31,21.0,easy,PEC,prediction,explanation,control,2,visible,2.0,b,2.0,a,,1,3,3,3,1.0,1702.9899999999907
31,21.0,easy,PEC,prediction,explanation,control,3,visible,3.0,a,1.0,b,,3,0,0,3,0.0,5022.509999988077
31,21.0,easy,PEC,prediction,explanation,control,4,visible,2.0,a,3.0,a,,0,3,0,0,1.0,4208.77800003576
31,21.0,easy,PEC,prediction,explanation,control,5,visible,2.0,a,3.0,a,,3,1,1,1,1.0,2667.934000011912
31,21.0,easy,PEC,prediction,explanation,control,1,hidden,0.0,b,,a,,3,0,0,0,1.0,9550.021999999995
31,21.0,easy,PEC,prediction,explanation,control,2,hidden,3.0,b,,a,,3,1,1,1,1.0,16278.957000035734
31,21.0,easy,PEC,prediction,explanation,control,3,hidden,3.0,a,,a,,2,1,2,2,1.0,699.6390000000247
31,21.0,easy,PEC,prediction,explanation,control,4,hidden,2.0,a,,b,,0,3,3,3,1.0,3087.0250000000237
31,21.0,easy,PEC,prediction,explanation,control,5,hidden,2.0,a,,b,,1,3,3,3,1.0,3802.740000035789
31,21.0,easy,PEC,prediction,explanation,control,1,visible,0.0,b,2.0,a,3.0,,,2,2,1.0,1617.9550000000163
31,21.0,easy,PEC,prediction,explanation,control,2,visible,2.0,a,0.0,a,2.0,,,1,1,1.0,1368.333000035782
31,21.0,easy,PEC,prediction,explanation,control,3,visible,0.0,a,2.0,b,2.0,,,2,2,1.0,1976.916000035766
31,21.0,easy,PEC,prediction,explanation,control,4,visible,0.0,a,2.0,a,0.0,,,2,1,0.0,369.0900000238325
31,21.0,easy,PEC,prediction,explanation,control,5,visible,2.0,a,0.0,b,2.0,,,1,2,0.0,4753.500000011933
31,21.0,easy,PEC,prediction,explanation,control,1,hidden,3.0,a,,b,2.0,,,1,2,0.0,2082.8649999999907
31,21.0,easy,PEC,prediction,explanation,control,2,hidden,0.0,b,,b,2.0,,,2,2,1.0,366.6920000119135
31,21.0,easy,PEC,prediction,explanation,control,3,hidden,0.0,a,,a,0.0,,,2,1,0.0,503.4230000357493
31,21.0,easy,PEC,prediction,explanation,control,4,hidden,0.0,a,,a,3.0,,,2,2,1.0,322.6270000357763
31,21.0,easy,PEC,prediction,explanation,control,5,hidden,3.0,a,,a,2.0,,,1,2,0.0,1269.3830000357702
31,21.0,easy,PEC,prediction,explanation,control,1,visible,0.0,a,2.0,,0.0,a,b,a,a,1.0,2944.992000011902
31,21.0,easy,PEC,prediction,explanation,control,2,visible,2.0,a,3.0,,1.0,a,b,a,a,1.0,3775.005000035744
31,21.0,easy,PEC,prediction,explanation,control,3,visible,2.0,a,3.0,,3.0,a,b,b,b,1.0,803.5880000357865
31,21.0,easy,PEC,prediction,explanation,control,4,visible,3.0,b,3.0,,3.0,a,b,b,b,1.0,806.8770000357763
31,21.0,easy,PEC,prediction,explanation,control,5,visible,2.0,b,2.0,,2.0,a,b,b,b,1.0,1018.2399999999908
31,21.0,easy,PEC,prediction,explanation,control,1,hidden,2.0,,,,2.0,aa,bb,bb,aa,0.0,1318.2119999999995
31,21.0,easy,PEC,prediction,explanation,control,2,hidden,0.0,,,,2.0,aa,bb,bb,bb,1.0,4656.730000035779
31,21.0,easy,PEC,prediction,explanation,control,3,hidden,3.0,,,,2.0,aa,bb,aa,bb,0.0,3829.833999988099
31,21.0,easy,PEC,prediction,explanation,control,4,hidden,0.0,,,,3.0,ab,aa,aa,aa,1.0,14003.125000011933
31,21.0,easy,PEC,prediction,explanation,control,5,hidden,3.0,,,,3.0,bb,ba,bb,bb,1.0,1946.463999999978
33,21.0,easy,PCE,prediction,control,explanation,1,visible,3.0,b,3.0,b,,1,3,3,3,1.0,3173.2020000059565
33,21.0,easy,PCE,prediction,control,explanation,2,visible,2.0,a,3.0,a,,0,3,0,0,1.0,2374.582000005961
33,21.0,easy,PCE,prediction,control,explanation,3,visible,3.0,b,3.0,a,,1,3,1,1,1.0,662.7019999880868
33,21.0,easy,PCE,prediction,control,explanation,4,visible,3.0,a,1.0,a,,0,1,0,0,1.0,1631.0320000059728
33,21.0,easy,PCE,prediction,control,explanation,5,visible,2.0,a,3.0,a,,3,1,1,1,1.0,3270.1819999940344
33,21.0,easy,PCE,prediction,control,explanation,1,hidden,3.0,a,,a,,2,1,2,2,1.0,7113.037000005948
33,21.0,easy,PCE,prediction,control,explanation,2,hidden,2.0,a,,b,,1,3,3,3,1.0,2908.886999982118
33,21.0,easy,PCE,prediction,control,explanation,3,hidden,1.0,b,,a,,2,1,2,2,1.0,6915.851999994018
33,21.0,easy,PCE,prediction,control,explanation,4,hidden,2.0,a,,b,,0,3,3,0,0.0,4478.361999982095
33,21.0,easy,PCE,prediction,control,explanation,5,hidden,3.0,a,,b,,2,1,2,2,1.0,2691.7019999880577
33,21.0,easy,PCE,prediction,control,explanation,1,visible,2.0,a,3.0,,3.0,a,b,b,b,1.0,1173.8019999880926
33,21.0,easy,PCE,prediction,control,explanation,2,visible,2.0,a,3.0,,1.0,a,b,a,a,1.0,354.1370000059833
33,21.0,easy,PCE,prediction,control,explanation,3,visible,3.0,b,3.0,,0.0,a,b,a,a,1.0,321.2669999821228
33,21.0,easy,PCE,prediction,control,explanation,4,visible,0.0,b,2.0,,2.0,a,b,b,b,1.0,498.1620000000112
33,21.0,easy,PCE,prediction,control,explanation,5,visible,3.0,b,3.0,,3.0,a,b,b,b,1.0,378.45199998212047
33,21.0,easy,PCE,prediction,control,explanation,1,hidden,0.0,,,,0.0,aa,ab,aa,ab,0.0,7316.531999988074
33,21.0,easy,PCE,prediction,control,explanation,2,hidden,3.0,,,,3.0,bb,ba,bb,bb,1.0,1537.0669999821112
33,21.0,easy,PCE,prediction,control,explanation,3,hidden,3.0,,,,1.0,aa,ba,ba,aa,0.0,1684.741999994032
33,21.0,easy,PCE,prediction,control,explanation,4,hidden,2.0,,,,1.0,ab,aa,aa,aa,1.0,345.77700000000186
