participant_id,fsm_number,fsm_type,test_condition,learning_condition,trial_number,trial_type,state_1,response_1,state_2,response_2,state_3,option_1,option_2,correctResponse,response,response_correct,response_time,option_1_p_mm,option_2_p_mm,R_i_mm_eps_0.1,response_correct_mm,option_1_p_mm_an,option_2_p_mm_an,R_i_mm_an_eps_0.1,response_correct_mm_an
1,22.0,hard,control,Experiment 1 (no preview),1,hidden,1.0,,,,3.0,ab,ba,ab,ba,0.0,4694.036000095366,0.6984854647549706,0.00034961343859741915,2.074056541198762,0.0,0.49983344437041977,0.00019984012789768185,1.789485430844661,0.0
1,22.0,hard,control,Experiment 1 (no preview),2,hidden,2.0,,,,1.0,ba,ab,ab,ab,1.0,6457.54800000001,0.4282697045856112,0.713815533146124,0.4321267651346004,1.0,0.5997202238209431,0.7140205596801827,0.15130504838176764,1.0
1,22.0,hard,control,Experiment 1 (no preview),3,hidden,3.0,,,,1.0,ba,bb,bb,bb,1.0,7118.08800004769,0.0002531009815402611,0.571042591668414,1.9011346116804324,1.0,0.00012493753123438283,0.7140205596801827,2.0955668417953777,1.0
1,22.0,hard,control,Experiment 1 (no preview),4,visible,0.0,b,3.0,,3.0,a,b,b,b,1.0,2537.9190000238304,0.00016655562958027982,0.20003996802557952,1.097081335751024,1.0,,,,
1,22.0,hard,control,Experiment 1 (no preview),5,visible,1.0,a,1.0,,0.0,a,b,a,b,0.0,1656.1240000238467,0.39988009592326135,0.00016655562958027982,1.6075339047269281,0.0,,,,
1,22.0,hard,control,Experiment 1 (no preview),6,visible,3.0,a,2.0,,2.0,a,b,a,a,1.0,500.6550000715361,0.9996251874062968,0.00014277555682467162,2.3961277387178126,1.0,,,,
1,22.0,hard,control,Experiment 1 (no preview),7,visible,3.0,b,2.0,,1.0,a,b,b,a,0.0,16902.52200004767,0.00012493753123438283,0.7140205596801827,2.0955668417953777,0.0,,,,
1,22.0,hard,control,Experiment 1 (no preview),8,hidden,1.0,,,,2.0,ab,ba,ba,ba,1.0,1741.3000000476895,0.0006579865028161641,0.3333499593899741,1.45981712367271,1.0,0.00016655562958027982,0.00019984012789768185,0.00033223633631522526,1.0
1,22.0,hard,control,Experiment 1 (no preview),9,visible,2.0,a,2.0,,2.0,a,b,a,a,1.0,577.4260000715149,0.9996251874062968,0.00014277555682467162,2.3961277387178126,1.0,,,,
1,22.0,hard,control,Experiment 1 (no preview),10,hidden,0.0,,,,3.0,aa,ab,ab,ab,1.0,2060.771000000008,0.00036624099936179426,0.20021919829497234,1.095686963148342,1.0,0.00016655562958027982,0.20003996802557952,1.097081335751024,1.0
1,22.0,hard,control,Experiment 1 (no preview),11,hidden,0.0,,,,0.0,aa,bb,aa,aa,1.0,4037.4220000715286,0.3331579849398625,0.00048495660238803066,1.4610944920030262,1.0,0.3332778147901399,0.00019984012789768188,1.4642125337388965,1.0
1,22.0,hard,control,Experiment 1 (no preview),12,visible,2.0,a,2.0,,0.0,a,b,b,b,1.0,1254.094000047684,0.00012493753123438283,0.2856938892061679,1.348625240222501,1.0,,,,
1,22.0,hard,control,Experiment 1 (no preview),13,hidden,2.0,,,,3.0,ba,ab,ba,ba,1.0,3344.33400007154,0.2856653414741587,0.00035472671098718545,1.3462588260261117,1.0,0.00019984012789768185,0.00014277555682467162,0.0005696698370561387,1.0
1,22.0,hard,control,Experiment 1 (no preview),14,visible,2.0,a,2.0,,1.0,a,b,b,b,1.0,787.7590000476921,0.00012493753123438283,0.7140205596801827,2.0955668417953777,1.0,,,,
1,22.0,hard,control,Experiment 1 (no preview),15,hidden,1.0,,,,0.0,aa,bb,aa,bb,0.0,1218.9990000238176,0.2399627199668169,0.0002308866711082255,1.2213595730800073,0.0,0.39988009592326135,0.00016655562958027982,1.6075339047269281,0.0
1,22.0,hard,control,Experiment 1 (no preview),16,visible,1.0,b,1.0,,3.0,a,b,b,a,0.0,969.576000047673,0.00019984012789768185,0.49983344437041977,1.789485430844661,0.0,,,,
1,22.0,hard,control,Experiment 1 (no preview),17,visible,0.0,a,3.0,,0.0,a,b,a,a,1.0,2548.6330000715097,0.3332778147901399,0.00019984012789768188,1.4642125337388965,1.0,,,,
1,22.0,hard,control,Experiment 1 (no preview),18,hidden,1.0,,,,3.0,aa,ba,aa,ba,0.0,2654.304000071541,0.399760266072984,0.00034961343859741915,1.605468292483331,0.0,0.00019984012789768185,0.00019984012789768185,0.0,
1,22.0,hard,control,Experiment 1 (no preview),19,hidden,3.0,,,,3.0,aa,ba,aa,aa,1.0,1710.405000000028,0.33316132597775755,0.0003329731349765848,1.4626158498711566,1.0,0.00012493753123438283,0.00012493753123438283,0.0,
1,22.0,hard,control,Experiment 1 (no preview),20,visible,2.0,b,1.0,,0.0,a,b,a,b,0.0,1268.3059999999823,0.39988009592326135,0.00016655562958027982,1.6075339047269281,0.0,,,,
2,21.0,easy,prediction,Experiment 1 (no preview),1,visible,2.0,a,3.0,a,,0.0,3.0,0.0,0,1.0,15843.166999999989,0.5997202238209431,0.00019984012789768185,1.9435139817746387,1.0,,,,
2,21.0,easy,prediction,Experiment 1 (no preview),2,visible,1.0,a,0.0,a,,2.0,0.0,2.0,2,1.0,6561.582000000752,0.9997857754927164,7.140816909454442e-05,2.396986677424215,1.0,,,,
2,21.0,easy,prediction,Experiment 1 (no preview),3,visible,3.0,b,3.0,b,,1.0,3.0,3.0,3,1.0,2708.4000000014785,0.25,0.25,0.0,0.0,,,,
2,21.0,easy,prediction,Experiment 1 (no preview),4,hidden,0.0,b,,a,,3.0,0.0,0.0,3,0.0,9280.245000002991,0.08941650390625,0.560546875,1.249119775614823,0.0,7.140636444091797e-05,7.140636444091797e-05,0.0,
2,21.0,easy,prediction,Experiment 1 (no preview),5,hidden,1.0,b,,a,,2.0,1.0,2.0,2,1.0,3933.199000002991,0.25,0.10009765625,0.5591276258559212,1.0,1.0,7.140636444091797e-05,2.3971814639761067,1.0
2,21.0,easy,prediction,Experiment 1 (no preview),6,hidden,0.0,a,,a,,1.0,0.0,0.0,0,1.0,6066.284000000742,9.995698928833008e-05,0.642578125,2.0039588273533147,1.0,7.140636444091797e-05,0.642578125,2.0042440891866025,1.0
2,21.0,easy,prediction,Experiment 1 (no preview),7,hidden,2.0,a,,b,,1.0,3.0,3.0,3,1.0,9726.804000001488,0.25,0.25,0.0,,0.25,0.25,0.0,
2,21.0,easy,prediction,Experiment 1 (no preview),8,hidden,2.0,a,,a,,3.0,1.0,1.0,3,0.0,6242.323000003002,0.00014281272888183594,0.142822265625,0.8857324640704258,0.0,7.140636444091797e-05,7.140636444091797e-05,0.0,
2,21.0,easy,prediction,Experiment 1 (no preview),9,visible,1.0,b,0.0,b,,2.0,1.0,2.0,2,1.0,5651.939000001468,0.25,0.25,0.0,1.0,,,,
2,21.0,easy,prediction,Experiment 1 (no preview),10,visible,3.0,b,3.0,a,,1.0,3.0,1.0,1,1.0,2816.3000000015018,0.39988009592326135,0.00019984012789768185,1.607201668390613,1.0,,,,
2,21.0,easy,prediction,Experiment 1 (no preview),11,hidden,3.0,a,,b,,2.0,1.0,2.0,2,1.0,4457.7680000007385,0.250244140625,0.25,0.0006973014716680862,1.0,0.25,0.25,0.0,
2,21.0,easy,prediction,Experiment 1 (no preview),12,hidden,2.0,a,,b,,0.0,3.0,3.0,3,1.0,12488.956000002974,0.25,0.25,0.0,,0.25,0.25,0.0,
2,21.0,easy,prediction,Experiment 1 (no preview),13,visible,0.0,b,2.0,b,,2.0,3.0,2.0,2,1.0,1694.0680000014836,0.999571673329526,0.00014277555682467162,2.3960790717905933,1.0,,,,
2,21.0,easy,prediction,Experiment 1 (no preview),14,visible,3.0,a,1.0,b,,3.0,0.0,0.0,3,0.0,8195.568000000727,0.25,0.25,0.0,0.0,,,,
2,21.0,easy,prediction,Experiment 1 (no preview),15,visible,2.0,a,3.0,a,,3.0,1.0,1.0,1,1.0,5055.856000000727,0.00019984012789768185,0.39988009592326135,1.607201668390613,1.0,,,,
2,21.0,easy,prediction,Experiment 1 (no preview),16,hidden,2.0,b,,a,,1.0,3.0,3.0,3,1.0,2993.36500000296,0.0001285076141357422,0.35693359375,1.518083634129031,1.0,7.140636444091797e-05,0.357177734375,1.5191882359572266,1.0
2,21.0,easy,prediction,Experiment 1 (no preview),17,visible,2.0,b,2.0,a,,1.0,3.0,3.0,3,1.0,2414.536000001477,7.140816909454443e-05,0.35711225364181665,1.519044979489037,1.0,,,,
2,21.0,easy,prediction,Experiment 1 (no preview),18,hidden,3.0,a,,a,,2.0,1.0,2.0,1,0.0,1993.8420000029728,0.599609375,0.00025582313537597656,1.9427969929310827,0.0,1.0,7.140636444091797e-05,2.3971814639761067,0.0
2,21.0,easy,prediction,Experiment 1 (no preview),19,visible,3.0,a,1.0,a,,0.0,1.0,0.0,0,1.0,5226.990000002959,0.9990013315579229,0.0003328894806924102,2.3936636137210456,1.0,,,,
2,21.0,easy,prediction,Experiment 1 (no preview),20,hidden,3.0,b,,a,,3.0,1.0,1.0,1,1.0,6453.729000002262,0.08941650390625,0.10009765625,0.05485721383525164,1.0,7.140636444091797e-05,7.140636444091797e-05,0.0,
3,21.0,easy,prediction,Experiment 1 (no preview),1,visible,3.0,b,3.0,a,,1.0,3.0,1.0,1,1.0,5807.148999976169,0.5997202238209431,0.00019984012789768185,1.9435139817746387,1.0,,,,
3,21.0,easy,prediction,Experiment 1 (no preview),2,hidden,2.0,b,,a,,1.0,3.0,3.0,3,1.0,2698.795999976166,0.00016582012176513672,0.454345703125,1.7109614910851967,1.0,9.08970832824707e-05,0.45458984375,1.7121500763089736,1.0
3,21.0,easy,prediction,Experiment 1 (no preview),3,visible,3.0,b,3.0,b,,1.0,3.0,3.0,1,0.0,4606.258000000002,0.0002497502497502498,0.9992507492507492,2.3947195147531968,0.0,,,,
3,21.0,easy,prediction,Experiment 1 (no preview),4,visible,2.0,a,3.0,a,,0.0,3.0,0.0,0,1.0,5082.779999999999,0.39988009592326135,0.00019984012789768185,1.607201668390613,1.0,,,,
3,21.0,easy,prediction,Experiment 1 (no preview),5,visible,3.0,a,1.0,a,,0.0,1.0,0.0,0,1.0,2950.744000023813,0.9990013315579229,0.0003328894806924102,2.3936636137210456,1.0,,,,
3,21.0,easy,prediction,Experiment 1 (no preview),6,hidden,3.0,a,,a,,2.0,1.0,2.0,2,1.0,3304.1870000477065,0.39990234375,0.0003638267517089844,1.6056109158267429,1.0,0.00033283233642578125,0.00033283233642578125,0.0,
3,21.0,easy,prediction,Experiment 1 (no preview),7,hidden,2.0,a,,b,,0.0,3.0,3.0,3,1.0,5657.535000047705,0.0003178119659423828,0.454345703125,1.7094452388932957,1.0,0.00033283233642578125,0.00033283233642578125,0.0,
3,21.0,easy,prediction,Experiment 1 (no preview),8,visible,1.0,b,0.0,b,,2.0,1.0,2.0,2,1.0,2939.9349999761325,0.9990013315579229,0.0003328894806924102,2.3936636137210456,1.0,,,,
3,21.0,easy,prediction,Experiment 1 (no preview),9,visible,1.0,a,0.0,a,,2.0,0.0,2.0,2,1.0,2416.8890000000247,0.9996668147490004,0.00011106175033318526,2.3964823300095106,1.0,,,,
3,21.0,easy,prediction,Experiment 1 (no preview),10,hidden,3.0,b,,a,,3.0,1.0,1.0,1,1.0,4044.079000000027,0.0003132820129394531,0.59912109375,1.9415258567232543,1.0,0.00019979476928710938,0.599609375,1.943356003131281,1.0
3,21.0,easy,prediction,Experiment 1 (no preview),11,hidden,2.0,a,,a,,3.0,1.0,1.0,3,0.0,2782.1260000715265,0.00019276142120361328,0.272705078125,1.3136914868912808,0.0,0.00011104345321655273,0.00011104345321655273,0.0,
3,21.0,easy,prediction,Experiment 1 (no preview),12,visible,2.0,a,3.0,a,,3.0,1.0,1.0,1,1.0,1490.3820000715205,0.00019984012789768185,0.5997202238209431,1.9435139817746385,1.0,,,,
3,21.0,easy,prediction,Experiment 1 (no preview),13,hidden,0.0,a,,a,,1.0,0.0,0.0,0,1.0,1486.3650000238558,0.00015747547149658203,0.54541015625,1.8631423137820557,1.0,9.08970832824707e-05,0.54541015625,1.8638072719019938,1.0
3,21.0,easy,prediction,Experiment 1 (no preview),14,visible,0.0,b,2.0,b,,2.0,3.0,2.0,2,1.0,1368.2339999761316,0.9996251874062968,0.00012493753123438283,2.3963058805197277,1.0,,,,
3,21.0,easy,prediction,Experiment 1 (no preview),15,hidden,2.0,a,,b,,1.0,3.0,3.0,1,0.0,1963.1049999999807,0.0003178119659423828,0.454345703125,1.7094452388932957,0.0,0.00033283233642578125,0.00033283233642578125,0.0,
3,21.0,easy,prediction,Experiment 1 (no preview),16,hidden,0.0,b,,a,,3.0,0.0,0.0,0,1.0,3146.350000023842,0.4541015625,0.54541015625,0.15253802010165618,1.0,0.45458984375,0.54541015625,0.1516571955930202,1.0
3,21.0,easy,prediction,Experiment 1 (no preview),17,visible,3.0,a,1.0,b,,3.0,0.0,0.0,0,1.0,2424.575000071549,0.25,0.25,0.0,0.0,,,,
3,21.0,easy,prediction,Experiment 1 (no preview),18,hidden,1.0,b,,a,,2.0,1.0,2.0,2,1.0,2999.5130000715144,0.25,0.1500244140625,0.33637458513927415,1.0,0.99951171875,0.00011104345321655273,2.396341463747904,1.0
3,21.0,easy,prediction,Experiment 1 (no preview),19,hidden,3.0,a,,b,,2.0,1.0,2.0,2,1.0,2244.587999999989,0.5498046875,0.1500244140625,0.9551132676228751,1.0,0.25,0.25,0.0,
3,21.0,easy,prediction,Experiment 1 (no preview),20,visible,2.0,b,2.0,a,,1.0,3.0,3.0,1,0.0,1373.3390000238433,9.087604507451837e-05,0.4544711014176663,1.7119361551967656,0.0,,,,
4,22.0,hard,explanation,Experiment 1 (no preview),1,visible,0.0,a,3.0,a,0.0,,,2.0,2,1.0,7670.377000011911,0.3992814730251726,0.00016643083765002485,1.6063368999820524,1.0,,,,
4,22.0,hard,explanation,Experiment 1 (no preview),2,visible,3.0,b,2.0,b,0.0,,,2.0,2,1.0,3143.978000047675,0.17133640317899873,6.0558803521510313e-05,0.9975838004690732,1.0,,,,
4,22.0,hard,explanation,Experiment 1 (no preview),3,hidden,2.0,a,,b,1.0,,,2.0,2,1.0,3491.4580000238493,0.47606002983106366,9.093747403111891e-05,1.7501327262245374,1.0,0.6663890739506995,9.087604507451837e-05,2.0356114364616,1.0
4,22.0,hard,explanation,Experiment 1 (no preview),4,visible,1.0,a,0.0,a,3.0,,,1.0,1,1.0,3009.846000035759,0.00016643083765002485,0.9970082290508803,2.393508850722683,1.0,,,,
4,22.0,hard,explanation,Experiment 1 (no preview),5,visible,2.0,b,1.0,b,1.0,,,1.0,2,0.0,2514.344999999972,6.0558803521510313e-05,0.00035629768447114913,0.0029512397388582108,0.0,,,,
4,22.0,hard,explanation,Experiment 1 (no preview),6,hidden,2.0,b,,a,1.0,,,1.0,1,1.0,2183.907000011939,9.093747403111891e-05,0.47606002983106366,1.7501327262245374,1.0,9.087604507451837e-05,0.6663890739506995,2.0356114364616,1.0
4,22.0,hard,explanation,Experiment 1 (no preview),7,hidden,2.0,b,,b,3.0,,,1.0,2,0.0,1154.1480000357842,0.0002940505747201444,0.2858361720372584,1.34730647769248,0.0,0.00014277555682467162,0.0004990019960079841,0.0035508737793712285,0.0
4,22.0,hard,explanation,Experiment 1 (no preview),8,hidden,3.0,b,,b,3.0,,,2.0,2,1.0,1028.3489999999874,0.39950030297633393,0.0002936750338962636,1.6055055721477556,1.0,0.00014277555682467162,9.087604507451837e-05,0.0005183895164193006,1.0
4,22.0,hard,explanation,Experiment 1 (no preview),9,visible,3.0,a,0.0,b,3.0,,,1.0,2,0.0,2900.099000023853,0.00016630629480545903,0.3995804854617804,1.6069368495855765,0.0,,,,
4,22.0,hard,explanation,Experiment 1 (no preview),10,visible,0.0,b,3.0,b,3.0,,,2.0,2,1.0,952.3549999999814,0.33302810613769973,0.00019954096602957153,1.4636390286817187,1.0,,,,
4,22.0,hard,explanation,Experiment 1 (no preview),11,visible,2.0,b,1.0,a,1.0,,,1.0,2,0.0,5623.065999999992,4.5347327881496194e-08,0.4758154995470371,1.7506166566369719,0.0,,,,
4,22.0,hard,explanation,Experiment 1 (no preview),12,hidden,3.0,b,,a,2.0,,,2.0,2,1.0,1062.2750000118976,0.599776541255348,0.2221879492897786,0.7756259885934513,1.0,0.9997273718647764,0.00014277555682467162,2.3962206610263554,1.0
4,22.0,hard,explanation,Experiment 1 (no preview),13,hidden,1.0,b,,a,2.0,,,1.0,2,0.0,1050.8210000476683,0.0010477529178802283,0.2222037921097357,1.1595910338285844,0.0,0.0002497502497502498,0.00016655562958027982,0.0008302181260506215,1.0
4,22.0,hard,explanation,Experiment 1 (no preview),14,visible,3.0,b,2.0,a,2.0,,,2.0,1,0.0,3832.3700000476674,0.599556723214667,9.51440710951884e-05,1.9443257075376266,0.0,,,,
4,22.0,hard,explanation,Experiment 1 (no preview),15,hidden,0.0,a,,a,0.0,,,2.0,2,1.0,468.5520000357647,0.39977989798540553,0.00023794918101459933,1.6066209461842853,1.0,0.39988009592326135,0.00016655562958027982,1.6075339047269281,1.0
4,22.0,hard,explanation,Experiment 1 (no preview),16,hidden,1.0,a,,a,0.0,,,2.0,2,1.0,2712.7850000477047,0.7986627067972446,0.0006409830311762997,2.189348216269209,1.0,0.9985029940119762,0.000499001996007984,2.3915558203048297,1.0
4,22.0,hard,explanation,Experiment 1 (no preview),17,visible,1.0,b,3.0,a,2.0,,,1.0,2,0.0,845.6140000357409,0.0002992615887330056,0.22209269436631407,1.1666810419062266,0.0,,,,
4,22.0,hard,explanation,Experiment 1 (no preview),18,hidden,3.0,a,,a,3.0,,,1.0,1,1.0,1581.5190000477014,0.0002936750338962636,0.39950030297633393,1.6055055721477556,1.0,9.087604507451837e-05,0.00014277555682467162,0.0005183895164192903,1.0
4,22.0,hard,explanation,Experiment 1 (no preview),19,visible,3.0,a,2.0,b,1.0,,,2.0,2,1.0,775.3209999999963,0.4758154995470371,5.450020209205227e-05,1.7500722565488906,1.0,,,,
4,22.0,hard,explanation,Experiment 1 (no preview),20,hidden,1.0,b,,b,2.0,,,1.0,2,0.0,899.8730000118958,0.0008309388219306789,0.2003725269776565,1.09157821960603,0.0,0.000499001996007984,0.0004990019960079841,0.0,0.0
5,22.0,hard,prediction,Experiment 1 (no preview),1,hidden,1.0,a,,a,,3.0,2.0,3.0,2,0.0,4210.0,0.333251953125,0.0008597373962402344,1.4575886236650808,0.0,0.00033283233642578125,0.00033283233642578125,0.0,
5,22.0,hard,prediction,Experiment 1 (no preview),2,hidden,3.0,a,,b,,2.0,3.0,3.0,2,0.0,5406.0,0.00036144256591796875,0.3330078125,1.4619776752568845,0.0,0.00014281272888183594,0.00014281272888183594,0.0,
5,22.0,hard,prediction,Experiment 1 (no preview),3,visible,3.0,a,0.0,b,,3.0,0.0,3.0,0,0.0,2120.0,0.998502994011976,0.000499001996007984,2.3915558203048293,0.0,,,,
5,22.0,hard,prediction,Experiment 1 (no preview),4,visible,0.0,a,3.0,b,,2.0,1.0,2.0,1,0.0,4603.0,0.5997202238209433,0.00019984012789768188,1.943513981774639,0.0,,,,
5,22.0,hard,prediction,Experiment 1 (no preview),5,visible,0.0,b,3.0,a,,2.0,1.0,2.0,2,1.0,3547.0,0.6663890739506995,0.00016655562958027982,2.03485561344444,1.0,,,,
5,22.0,hard,prediction,Experiment 1 (no preview),6,visible,0.0,a,3.0,a,,3.0,0.0,0.0,3,0.0,2523.0,0.00016655562958027982,0.3332778147901399,1.4645447700752117,0.0,,,,
5,22.0,hard,prediction,Experiment 1 (no preview),7,visible,2.0,a,2.0,b,,0.0,3.0,0.0,3,0.0,3452.0,0.2856938892061679,0.00014277555682467162,1.348447098420586,0.0,,,,
5,22.0,hard,prediction,Experiment 1 (no preview),8,hidden,1.0,b,,a,,3.0,2.0,2.0,3,0.0,968.0,0.00040411949157714844,0.285888671875,1.3463456758251782,0.0,0.00033283233642578125,0.00033283233642578125,0.0,
5,22.0,hard,prediction,Experiment 1 (no preview),9,hidden,2.0,a,,a,,2.0,3.0,2.0,2,1.0,4671.0,0.99951171875,0.00022208690643310547,2.395232875623817,1.0,0.99951171875,0.00011104345321655273,2.396341463747904,1.0
5,22.0,hard,prediction,Experiment 1 (no preview),10,hidden,0.0,a,,a,,1.0,0.0,0.0,1,0.0,2034.0,0.00033283233642578125,0.3330078125,1.4622627878212555,0.0,0.0001665353775024414,0.333251953125,1.4644852820648673,0.0
5,22.0,hard,prediction,Experiment 1 (no preview),11,visible,2.0,b,1.0,a,,3.0,1.0,1.0,1,1.0,889.0,0.0003328894806924102,0.6661118508655127,2.032834626196963,1.0,,,,
5,22.0,hard,prediction,Experiment 1 (no preview),12,hidden,3.0,a,,a,,0.0,3.0,3.0,0,0.0,11943.0,0.0002682209014892578,0.3330078125,1.4629069662652658,0.0,0.00011104345321655273,0.00011104345321655273,0.0,
5,22.0,hard,prediction,Experiment 1 (no preview),13,hidden,2.0,b,,b,,1.0,3.0,3.0,1,0.0,1530.0,0.408203125,0.59130859375,0.3077050941417933,0.0,0.5712890625,0.428466796875,0.23921985967457812,1.0
5,22.0,hard,prediction,Experiment 1 (no preview),14,visible,1.0,a,0.0,a,,3.0,0.0,3.0,3,1.0,912.0,0.9992507492507492,0.0002497502497502498,2.3947195147531968,1.0,,,,
5,22.0,hard,prediction,Experiment 1 (no preview),15,hidden,2.0,a,,b,,1.0,2.0,1.0,2,0.0,743.0,0.7138671875,0.00020945072174072266,2.0945346895877432,0.0,0.7138671875,0.00014281272888183594,2.0951998978980315,0.0
5,22.0,hard,prediction,Experiment 1 (no preview),16,visible,2.0,b,1.0,b,,1.0,0.0,1.0,0,0.0,6735.0,0.571245002855511,0.00014277555682467162,1.90253727797734,0.0,,,,
5,22.0,hard,prediction,Experiment 1 (no preview),17,visible,3.0,b,2.0,a,,1.0,2.0,2.0,2,1.0,579.0,0.00011106175033318526,0.9996668147490004,2.3964823300095106,1.0,,,,
5,22.0,hard,prediction,Experiment 1 (no preview),18,hidden,3.0,b,,b,,1.0,3.0,1.0,1,1.0,3334.0,0.428466796875,0.1602783203125,0.7082284569046167,1.0,0.7138671875,0.00014281272888183594,2.0951998978980315,1.0
5,22.0,hard,prediction,Experiment 1 (no preview),19,visible,1.0,b,3.0,b,,3.0,0.0,3.0,0,0.0,1014.0,0.3998800959232614,0.00019984012789768188,1.6072016683906132,0.0,,,,
5,22.0,hard,prediction,Experiment 1 (no preview),20,hidden,1.0,b,,a,,3.0,0.0,0.0,3,0.0,2145.0,0.00040411949157714844,0.333251953125,1.4621161994555407,0.0,0.00033283233642578125,0.333251953125,1.4628264539203912,0.0
6,22.0,hard,control,Experiment 1 (no preview),1,hidden,1.0,,,,2.0,ab,ba,ba,ba,1.0,11974.0,0.0006679486745398158,0.5705342108153132,1.8962472604585265,1.0,0.0002497502497502498,0.571245002855511,1.9014696263505486,1.0
6,22.0,hard,control,Experiment 1 (no preview),2,hidden,3.0,,,,1.0,ba,bb,bb,ba,0.0,40175.0,0.00019699317211313515,0.29984038617460806,1.3839272529708615,0.0,9.996001599360256e-05,0.49983344437041966,1.7904827370837175,0.0
6,22.0,hard,control,Experiment 1 (no preview),3,hidden,1.0,,,,3.0,ab,ba,ab,ab,1.0,6540.0,0.998036063446785,0.001138066346754676,2.384791889310864,1.0,0.9992507492507492,0.00014277555682467162,2.395787166379988,1.0
6,22.0,hard,control,Experiment 1 (no preview),4,visible,0.0,b,3.0,,3.0,a,b,b,b,1.0,3124.0,0.00014277555682467162,0.3998800959232614,1.6077713382276693,1.0,,,,
6,22.0,hard,control,Experiment 1 (no preview),5,visible,1.0,a,1.0,,0.0,a,b,a,b,0.0,16208.0,0.5997202238209431,0.0009960159362549803,1.9355995050066217,0.0,,,,
6,22.0,hard,control,Experiment 1 (no preview),6,hidden,2.0,,,,3.0,ba,ab,ba,ab,0.0,5274.0,0.49963371124049477,0.00040602415521767536,1.7870967805271412,0.0,0.999400479616307,0.00016655562958027982,2.3956859348960324,0.0
6,22.0,hard,control,Experiment 1 (no preview),7,hidden,0.0,,,,0.0,aa,bb,aa,aa,1.0,2990.0,0.4283324779424847,0.00032483505551324926,1.6613125065555627,1.0,0.42846944603083953,0.00019984012789768188,1.6628183979005142,1.0
6,22.0,hard,control,Experiment 1 (no preview),8,hidden,1.0,,,,3.0,aa,ba,aa,ba,0.0,3973.0,0.5994406399200706,0.001138066346754676,1.9337943528872286,0.0,0.999400479616307,0.00014277555682467162,2.3959233683967733,0.0
6,22.0,hard,control,Experiment 1 (no preview),9,visible,1.0,b,1.0,,3.0,a,b,b,a,0.0,7556.0,0.00019984012789768185,0.9970119521912352,2.3931787624393155,0.0,,,,
6,22.0,hard,control,Experiment 1 (no preview),10,visible,2.0,a,2.0,,0.0,a,b,b,b,1.0,4991.000000000058,9.996001599360256e-05,0.49983344437041966,1.7904827370837175,1.0,,,,
6,22.0,hard,control,Experiment 1 (no preview),11,hidden,1.0,,,,0.0,aa,bb,aa,aa,1.0,16356.000000000058,0.24002167415978717,0.0006983258750816779,1.2168801883959415,1.0,0.00019984012789768188,0.00019984012789768188,0.0,
6,22.0,hard,control,Experiment 1 (no preview),12,hidden,0.0,,,,3.0,aa,ab,ab,aa,0.0,10474.000000000058,0.00034247019173468845,0.40003932633279415,1.606097711026323,0.0,0.00014277555682467162,0.3998800959232614,1.6077713382276693,0.0
6,22.0,hard,control,Experiment 1 (no preview),13,visible,0.0,a,3.0,,0.0,a,b,a,a,1.0,4707.000000000058,0.42846944603083953,0.00019984012789768188,1.6628183979005142,1.0,,,,
6,22.0,hard,control,Experiment 1 (no preview),14,hidden,3.0,,,,3.0,aa,ba,aa,aa,1.0,3273.0,0.42826972044092126,0.0003168014022676207,1.6612737950156977,1.0,9.996001599360256e-05,9.996001599360256e-05,0.0,
6,22.0,hard,control,Experiment 1 (no preview),15,visible,2.0,a,2.0,,2.0,a,b,a,a,1.0,2240.0,0.9997001199520191,0.00016655562958027982,2.3959584466107082,1.0,,,,
6,22.0,hard,control,Experiment 1 (no preview),16,hidden,2.0,,,,1.0,ba,ab,ab,ba,0.0,1840.0000000000584,0.1999733728889242,0.4996836987959697,0.6927086338603606,0.0,0.00019984012789768188,0.49983344437041966,1.789485430844661,0.0
6,22.0,hard,control,Experiment 1 (no preview),17,visible,3.0,b,2.0,,1.0,a,b,b,a,0.0,806.0,9.996001599360256e-05,0.49983344437041966,1.7904827370837175,0.0,,,,
6,22.0,hard,control,Experiment 1 (no preview),18,visible,2.0,b,1.0,,0.0,a,b,a,a,1.0,5490.0,0.5997202238209431,0.0009960159362549803,1.9355995050066217,1.0,,,,
6,22.0,hard,control,Experiment 1 (no preview),19,visible,3.0,a,2.0,,2.0,a,b,a,a,1.0,557.0,0.9997001199520191,0.00016655562958027982,2.3959584466107082,1.0,,,,
6,22.0,hard,control,Experiment 1 (no preview),20,visible,2.0,a,2.0,,1.0,a,b,b,b,1.0,3790.000000000058,9.996001599360256e-05,0.49983344437041966,1.7904827370837175,1.0,,,,
7,22.0,hard,prediction,Experiment 1 (no preview),1,hidden,0.0,a,,a,,1.0,0.0,0.0,1,0.0,2062.30399990466,0.00019156932830810547,0.374755859375,1.5557166449674615,0.0,0.00012493133544921875,0.375,1.5568960844346253,0.0
7,22.0,hard,prediction,Experiment 1 (no preview),2,hidden,2.0,a,,b,,1.0,2.0,1.0,2,0.0,3294.9599998569465,0.499755859375,0.0003120899200439453,1.7882364460762923,0.0,0.499755859375,0.00012493133544921875,1.7901039517677715,0.0
7,22.0,hard,prediction,Experiment 1 (no preview),3,hidden,3.0,a,,a,,0.0,3.0,3.0,0,0.0,4572.425999952306,0.0003609657287597656,0.374755859375,1.554027347540354,0.0,0.0002498626708984375,0.0002498626708984375,0.0,
7,22.0,hard,prediction,Experiment 1 (no preview),4,hidden,1.0,a,,a,,3.0,2.0,3.0,2,0.0,3099.689000000013,0.666015625,0.0007848739624023438,2.028214283224522,0.0,0.99951171875,0.00019979476928710938,2.3954553277538095,0.0
7,22.0,hard,prediction,Experiment 1 (no preview),5,visible,0.0,b,3.0,a,,2.0,1.0,2.0,1,0.0,5823.971999809262,0.6248125937031483,0.00012493753123438283,1.9794943485155125,0.0,,,,
7,22.0,hard,prediction,Experiment 1 (no preview),6,hidden,3.0,a,,b,,2.0,3.0,3.0,3,1.0,6494.364999952319,0.00026535987854003906,0.374755859375,1.5549804214419696,1.0,0.00012493133544921875,0.00012493133544921875,0.0,
7,22.0,hard,prediction,Experiment 1 (no preview),7,visible,0.0,a,3.0,b,,2.0,1.0,2.0,1,0.0,4968.619000000006,0.7495004995004996,0.0002497502497502498,2.1369839541960753,0.0,,,,
7,22.0,hard,prediction,Experiment 1 (no preview),8,visible,2.0,b,1.0,b,,1.0,0.0,1.0,0,0.0,3756.353999856976,0.571245002855511,0.00014277555682467162,1.90253727797734,0.0,,,,
7,22.0,hard,prediction,Experiment 1 (no preview),9,visible,3.0,b,2.0,a,,1.0,2.0,2.0,2,1.0,12517.014999809267,0.0002497502497502498,0.9992507492507492,2.3947195147531968,1.0,,,,
7,22.0,hard,prediction,Experiment 1 (no preview),10,hidden,1.0,b,,a,,3.0,0.0,0.0,0,1.0,7628.180999904638,0.0003864765167236328,0.541015625,1.8540263304618878,1.0,0.00033283233642578125,0.666015625,2.0327095849612355,1.0
7,22.0,hard,prediction,Experiment 1 (no preview),11,hidden,2.0,b,,b,,1.0,3.0,3.0,1,0.0,2887.452999809291,0.28564453125,0.7138671875,0.7468811506957495,0.0,0.0002498626708984375,0.9990234375,2.394511584062472,0.0
7,22.0,hard,prediction,Experiment 1 (no preview),12,visible,3.0,a,0.0,b,,3.0,0.0,3.0,3,1.0,5510.331999952323,0.9992507492507492,0.0002497502497502498,2.3947195147531968,1.0,,,,
7,22.0,hard,prediction,Experiment 1 (no preview),13,hidden,1.0,b,,a,,3.0,2.0,2.0,2,1.0,3407.7189998092363,0.0003864765167236328,0.26806640625,1.2992358715190417,1.0,0.00033283233642578125,0.00033283233642578125,0.0,
7,22.0,hard,prediction,Experiment 1 (no preview),14,hidden,2.0,a,,a,,2.0,3.0,2.0,2,1.0,2822.708999809285,0.99853515625,0.0004992485046386719,2.3915826452760753,1.0,0.9990234375,0.0002498626708984375,2.394511584062472,1.0
7,22.0,hard,prediction,Experiment 1 (no preview),15,hidden,3.0,b,,b,,1.0,3.0,1.0,1,1.0,2058.6629999523284,0.374755859375,0.06292724609375,1.069496933455396,1.0,0.499755859375,0.00012493133544921875,1.7901039517677715,1.0
7,22.0,hard,prediction,Experiment 1 (no preview),16,visible,2.0,b,1.0,a,,3.0,1.0,1.0,1,1.0,5724.259999809263,0.0003328894806924102,0.3332223701731025,1.4627576008684884,1.0,,,,
7,22.0,hard,prediction,Experiment 1 (no preview),17,visible,1.0,a,0.0,a,,3.0,0.0,3.0,0,0.0,2879.232000000018,0.999400479616307,0.00019984012789768188,2.3953536985597172,0.0,,,,
7,22.0,hard,prediction,Experiment 1 (no preview),18,visible,0.0,a,3.0,a,,3.0,0.0,0.0,3,0.0,3278.9299998092465,0.00012493753123438283,0.37493753123438284,1.556764500714693,0.0,,,,
7,22.0,hard,prediction,Experiment 1 (no preview),19,visible,1.0,b,3.0,b,,3.0,0.0,3.0,0,0.0,6043.874000000011,0.25,0.0002497502497502498,1.2502685795741957,0.0,,,,
7,22.0,hard,prediction,Experiment 1 (no preview),20,visible,2.0,a,2.0,b,,0.0,3.0,0.0,0,1.0,1531.760999809252,0.4998750624687657,0.00012493753123438286,1.7903026228341514,1.0,,,,
8,21.0,easy,control,Experiment 1 (no preview),1,visible,0.0,b,2.0,,3.0,a,b,a,a,1.0,1922.0519999880928,0.38457397723777303,0.00011106175033318526,1.5769899202604247,1.0,,,,
8,21.0,easy,control,Experiment 1 (no preview),2,visible,3.0,b,3.0,,0.0,a,b,a,a,1.0,5631.573000011907,0.39988009592326135,0.25,0.3564351070266821,1.0,,,,
8,21.0,easy,control,Experiment 1 (no preview),3,hidden,2.0,,,,1.0,ab,aa,aa,aa,1.0,14337.371999976169,0.09634835887409769,0.23069837683265562,0.5213162888752296,1.0,0.0003328894806924102,9.996001599360256e-05,0.0023242654100349967,0.0
8,21.0,easy,control,Experiment 1 (no preview),4,hidden,3.0,,,,1.0,aa,ba,ba,ba,1.0,6720.879999976169,0.0007571664548243211,0.15022327479718905,0.9096402891128645,1.0,0.0009960159362549805,9.996001599360256e-05,0.008911783007073454,0.0
8,21.0,easy,control,Experiment 1 (no preview),5,visible,0.0,b,2.0,,2.0,a,b,b,b,1.0,6901.1720000000205,7.689941556444173e-05,0.9996668147490004,2.3968236326023478,1.0,,,,
8,21.0,easy,control,Experiment 1 (no preview),6,visible,3.0,b,3.0,,3.0,a,b,b,a,0.0,16630.997000011906,0.00019984012789768185,0.25,1.2507665613639307,0.0,,,,
8,21.0,easy,control,Experiment 1 (no preview),7,hidden,0.0,,,,3.0,ab,aa,aa,aa,1.0,7420.890000011946,0.00013610160501388306,0.38445878070482287,1.5765020750716243,1.0,0.00011106175033318526,0.38457397723777303,1.5769899202604247,1.0
8,21.0,easy,control,Experiment 1 (no preview),8,hidden,0.0,,,,0.0,aa,ab,aa,aa,1.0,2334.228000000003,0.61522735941054,0.00023586210001747844,1.9650744475292234,1.0,0.6152722239310982,0.00011106175033318526,1.9663830157923823,1.0
8,21.0,easy,control,Experiment 1 (no preview),9,visible,0.0,a,2.0,,2.0,a,b,b,b,1.0,1754.857000023825,7.689941556444173e-05,0.9996668147490004,2.3968236326023478,1.0,,,,
8,21.0,easy,control,Experiment 1 (no preview),10,visible,0.0,a,2.0,,3.0,a,b,a,a,1.0,1567.335000011895,0.38457397723777303,0.00011106175033318526,1.5769899202604247,1.0,,,,
8,21.0,easy,control,Experiment 1 (no preview),11,visible,2.0,b,2.0,,2.0,a,b,b,b,1.0,1091.6669999761507,7.689941556444173e-05,0.9996668147490004,2.3968236326023478,1.0,,,,
8,21.0,easy,control,Experiment 1 (no preview),12,hidden,3.0,,,,3.0,bb,ba,bb,ba,0.0,5413.146999999997,0.0627357383067584,0.09646744832947983,0.1883691124328511,1.0,0.0003328894806924102,9.996001599360256e-05,0.0023242654100349967,0.0
8,21.0,easy,control,Experiment 1 (no preview),13,hidden,3.0,,,,2.0,aa,bb,aa,bb,0.0,7910.343999976176,0.4003575660647951,0.5622917870757328,0.2803832498370019,1.0,0.0009960159362549805,0.9990013315579229,2.387076096124007,1.0
8,21.0,easy,control,Experiment 1 (no preview),14,hidden,3.0,,,,2.0,ab,ba,ab,ab,1.0,3826.4679999999935,0.40002974345566994,0.2502432188579341,0.3560397593969926,1.0,0.0004990019960079841,0.9997001199520191,2.3926450063320774,0.0
8,21.0,easy,control,Experiment 1 (no preview),15,visible,2.0,a,3.0,,3.0,a,b,b,a,0.0,4726.317999988096,0.00019984012789768185,0.25,1.2507665613639307,0.0,,,,
8,21.0,easy,control,Experiment 1 (no preview),16,visible,2.0,a,3.0,,1.0,a,b,a,a,1.0,7516.309000000008,0.5997202238209431,0.25,0.6927474204107078,1.0,,,,
8,21.0,easy,control,Experiment 1 (no preview),17,hidden,2.0,,,,2.0,aa,bb,bb,bb,1.0,2553.434000023816,0.6151646518864251,0.9994725122044987,0.4300730108718127,1.0,0.9997001199520191,0.9996668147490004,3.0286172348622534e-05,0.0
8,21.0,easy,control,Experiment 1 (no preview),18,hidden,2.0,,,,3.0,aa,ab,ab,aa,0.0,4317.378000023833,0.00016800604127615727,0.09634835887409769,0.6730415861449638,0.0,9.996001599360256e-05,0.0003328894806924102,0.002324265410034969,0.0
8,21.0,easy,control,Experiment 1 (no preview),19,visible,0.0,a,2.0,,0.0,a,b,a,a,1.0,8868.403000023856,0.6152722239310982,0.00011106175033318526,1.9663830157923823,1.0,,,,
8,21.0,easy,control,Experiment 1 (no preview),20,hidden,0.0,,,,2.0,aa,bb,bb,bb,1.0,2223.962000011932,0.00017692593273452151,0.9990844245656806,2.3952948888743806,1.0,7.689941556444173e-05,0.9996668147490004,2.3968236326023478,1.0
9,22.0,hard,explanation,Experiment 1 (no preview),1,hidden,3.0,b,,a,2.0,,,2.0,2,1.0,7610.619999982126,0.2502499953695654,0.247922417803782,0.006667654421949987,1.0,0.25,0.00014277555682467162,1.251336231200987,1.0
9,22.0,hard,explanation,Experiment 1 (no preview),2,visible,1.0,a,0.0,a,3.0,,,1.0,2,0.0,5031.719999994035,1.9224853891110432e-05,0.0004985036584620374,0.0047804223681413936,0.0,,,,
9,22.0,hard,explanation,Experiment 1 (no preview),3,visible,2.0,b,1.0,b,1.0,,,1.0,2,0.0,451.9950000059616,0.00011528508319379413,0.7129516666267693,2.094349284339165,0.0,,,,
9,22.0,hard,explanation,Experiment 1 (no preview),4,visible,0.0,b,3.0,b,3.0,,,2.0,2,1.0,3161.0389999999898,0.11361777535441658,0.0009950212465716366,0.7491171005371651,1.0,,,,
9,22.0,hard,explanation,Experiment 1 (no preview),5,hidden,1.0,a,,a,0.0,,,2.0,2,1.0,525.714999988093,0.30711984806512077,0.00021955757748322492,1.4017442540775729,1.0,0.0004990019960079841,7.689941556444173e-05,0.004208912442618834,1.0
9,22.0,hard,explanation,Experiment 1 (no preview),6,visible,3.0,a,2.0,b,1.0,,,2.0,2,1.0,396.42699999402976,0.38938907475834034,1.6589206133494012e-07,1.5879859821053135,1.0,,,,
9,22.0,hard,explanation,Experiment 1 (no preview),7,hidden,3.0,b,,b,3.0,,,2.0,2,1.0,374.73300000000745,0.9967755192511244,0.0005662554554996752,2.3893130392938464,1.0,0.9990013315579227,0.00016655562958027982,2.395322809228339,1.0
9,22.0,hard,explanation,Experiment 1 (no preview),8,hidden,0.0,a,,a,0.0,,,2.0,2,1.0,371.3579999880749,0.9960997117455136,0.07154863853687482,1.8546466082134752,1.0,0.9970119521912354,0.00033288948069241014,2.391851803268337,1.0
9,22.0,hard,explanation,Experiment 1 (no preview),9,visible,3.0,a,0.0,b,3.0,,,1.0,2,0.0,375.4739999940503,9.078529003616167e-05,0.24925298804780885,1.2497189266741267,0.0,,,,
9,22.0,hard,explanation,Experiment 1 (no preview),10,hidden,2.0,b,,a,1.0,,,1.0,2,0.0,395.0429999940389,0.0003745835015089091,0.4944218435756405,1.7786802188441722,0.0,0.00016655562958027982,0.69217163949554,2.0679437280863495,0.0
9,22.0,hard,explanation,Experiment 1 (no preview),11,hidden,1.0,b,,a,2.0,,,1.0,2,0.0,537.8309999940393,0.0011222551612073309,0.1678427084296958,0.9740696673865983,0.0,0.0004990019960079841,7.689941556444173e-05,0.004208912442618834,1.0
9,22.0,hard,explanation,Experiment 1 (no preview),12,hidden,2.0,b,,b,3.0,,,1.0,2,0.0,721.2349999880826,0.00043603316308357345,0.07177993597281579,0.5366931766936962,0.0,0.00014277555682467162,0.0004990019960079841,0.0035508737793712285,0.0
9,22.0,hard,explanation,Experiment 1 (no preview),13,hidden,2.0,a,,b,1.0,,,2.0,2,1.0,769.9580000059505,0.4944218435756405,0.0003745835015089091,1.7786802188441722,1.0,0.69217163949554,0.00016655562958027982,2.0679437280863495,1.0
9,22.0,hard,explanation,Experiment 1 (no preview),14,visible,3.0,b,2.0,b,0.0,,,2.0,2,1.0,349.15399999404326,0.000284555666540008,9.083063732381492e-05,0.0019336216203936511,1.0,,,,
9,22.0,hard,explanation,Experiment 1 (no preview),15,visible,3.0,b,2.0,a,2.0,,,2.0,2,1.0,520.323000000004,0.0009955182600709757,7.786224250316744e-05,0.009127636750117619,1.0,,,,
9,22.0,hard,explanation,Experiment 1 (no preview),16,hidden,3.0,a,,a,3.0,,,1.0,2,0.0,349.84400000594906,0.0005662554554996752,0.9967755192511244,2.389313039293846,0.0,0.00016655562958027982,0.9990013315579227,2.395322809228339,0.0
9,22.0,hard,explanation,Experiment 1 (no preview),17,visible,1.0,b,3.0,a,2.0,,,1.0,2,0.0,362.6769999821263,4.970139402469963e-07,0.16778944425678494,0.9850258598482182,0.0,,,,
9,22.0,hard,explanation,Experiment 1 (no preview),18,visible,2.0,b,1.0,a,1.0,,,1.0,2,0.0,359.3569999821193,0.00016630629480545906,0.4942247814273551,1.780425800112988,0.0,,,,
9,22.0,hard,explanation,Experiment 1 (no preview),19,visible,0.0,a,3.0,a,0.0,,,2.0,2,1.0,427.5569999940344,0.9960162678182082,2.2719011268629595e-05,2.394039960000619,1.0,,,,
9,22.0,hard,explanation,Experiment 1 (no preview),20,hidden,1.0,b,,b,2.0,,,1.0,2,0.0,411.3449999880977,0.00034915096909887716,0.0007479296416591281,0.003966036643226729,0.0,7.689941556444173e-05,0.0004990019960079841,0.004208912442618806,0.0
10,21.0,easy,prediction,Experiment 1 (no preview),1,hidden,3.0,a,,b,,2.0,1.0,2.0,2,1.0,5017.960000000021,0.33349609375,0.0004436969757080078,1.4622854438079316,1.0,0.0004987716674804688,0.0004987716674804688,0.0,
10,21.0,easy,prediction,Experiment 1 (no preview),2,visible,1.0,b,0.0,b,,2.0,1.0,2.0,2,1.0,3906.080000000016,0.9990013315579229,0.0003328894806924102,2.3936636137210456,1.0,,,,
10,21.0,easy,prediction,Experiment 1 (no preview),3,visible,3.0,a,1.0,a,,0.0,1.0,0.0,0,1.0,1681.7399999999907,0.9985029940119762,0.0004990019960079841,2.3915558203048297,1.0,,,,
10,21.0,easy,prediction,Experiment 1 (no preview),4,hidden,1.0,b,,a,,2.0,1.0,2.0,2,1.0,4921.859999999986,0.998046875,0.00043272972106933594,2.3918001650439398,1.0,0.99951171875,9.995698928833008e-05,2.3964522115481257,1.0
10,21.0,easy,prediction,Experiment 1 (no preview),5,visible,3.0,a,1.0,b,,3.0,0.0,0.0,0,1.0,2917.140000000014,0.0004990019960079841,0.9985029940119762,2.3915558203048297,1.0,,,,
10,21.0,easy,prediction,Experiment 1 (no preview),6,hidden,0.0,a,,a,,1.0,0.0,0.0,1,0.0,5594.419999999984,0.0001380443572998047,0.5712890625,1.9026501601735948,0.0,7.140636444091797e-05,0.5712890625,1.9033158429880621,0.0
10,21.0,easy,prediction,Experiment 1 (no preview),7,visible,1.0,a,0.0,a,,2.0,0.0,2.0,2,1.0,8725.440000000002,0.9997001199520191,9.996001599360256e-05,2.3966235165134493,1.0,,,,
10,21.0,easy,prediction,Experiment 1 (no preview),8,visible,2.0,b,2.0,a,,1.0,3.0,3.0,1,0.0,9326.840000000026,7.140816909454443e-05,0.4285204227363611,1.664197434550999,0.0,,,,
10,21.0,easy,prediction,Experiment 1 (no preview),9,visible,3.0,b,3.0,a,,1.0,3.0,1.0,1,1.0,2546.140000000014,0.6663890739506995,0.00016655562958027982,2.03485561344444,1.0,,,,
10,21.0,easy,prediction,Experiment 1 (no preview),10,visible,2.0,a,3.0,a,,3.0,1.0,1.0,1,1.0,4746.239999999991,0.00016655562958027982,0.6663890739506995,2.0348556134444395,1.0,,,,
10,21.0,easy,prediction,Experiment 1 (no preview),11,hidden,3.0,b,,a,,3.0,1.0,1.0,1,1.0,4730.059999999998,0.00038051605224609375,0.66552734375,2.031596809377076,1.0,0.0001665353775024414,0.66650390625,2.035005639916289,1.0
10,21.0,easy,prediction,Experiment 1 (no preview),12,hidden,0.0,b,,a,,3.0,0.0,0.0,3,0.0,3841.5,0.427978515625,0.5712890625,0.24014424502418744,0.0,0.428466796875,0.5712890625,0.23921985967457804,0.0
10,21.0,easy,prediction,Experiment 1 (no preview),13,hidden,2.0,a,,a,,3.0,1.0,1.0,1,1.0,6274.260000000009,0.00015914440155029297,0.28564453125,1.348155676676775,1.0,9.995698928833008e-05,9.995698928833008e-05,0.0,
10,21.0,easy,prediction,Experiment 1 (no preview),14,visible,2.0,a,3.0,a,,0.0,3.0,0.0,0,1.0,12699.700000000012,0.3332778147901399,0.00016655562958027982,1.4645447700752119,1.0,,,,
10,21.0,easy,prediction,Experiment 1 (no preview),15,visible,0.0,b,2.0,b,,2.0,3.0,2.0,2,1.0,818.4199999999837,0.9992507492507492,0.0002497502497502498,2.3947195147531968,1.0,,,,
10,21.0,easy,prediction,Experiment 1 (no preview),16,hidden,2.0,a,,b,,1.0,3.0,3.0,3,1.0,2546.7600000000093,0.00040411949157714844,0.427978515625,1.65985235556574,1.0,0.00033283233642578125,0.00033283233642578125,0.0,
10,21.0,easy,prediction,Experiment 1 (no preview),17,hidden,2.0,b,,a,,1.0,3.0,3.0,1,0.0,5578.140000000014,0.00023794174194335938,0.42822265625,1.6619711151837082,0.0,7.140636444091797e-05,0.428466796875,1.6640959833134839,0.0
10,21.0,easy,prediction,Experiment 1 (no preview),18,hidden,2.0,a,,b,,0.0,3.0,3.0,0,0.0,3552.179999999993,0.0004754066467285156,0.427978515625,1.6591426052042737,0.0,0.00033283233642578125,0.00033283233642578125,0.0,
10,21.0,easy,prediction,Experiment 1 (no preview),19,hidden,3.0,a,,a,,2.0,1.0,2.0,2,1.0,4339.580000000016,0.33349609375,0.000476837158203125,1.4619555603250065,1.0,0.0004987716674804688,0.0004987716674804688,0.0,
10,21.0,easy,prediction,Experiment 1 (no preview),20,visible,3.0,b,3.0,b,,1.0,3.0,3.0,3,1.0,2661.5999999999767,0.000499001996007984,0.998502994011976,2.3915558203048293,1.0,,,,
11,21.0,easy,control,Experiment 1 (no preview),1,visible,0.0,a,2.0,,3.0,a,b,a,a,1.0,5270.738000000187,0.38457397723777303,0.0003328894806924102,1.5747765551819801,1.0,,,,
11,21.0,easy,control,Experiment 1 (no preview),2,visible,2.0,a,3.0,,1.0,a,b,a,a,1.0,3877.356000000204,0.5997202238209431,0.00016655562958027982,1.943846218110954,1.0,,,,
11,21.0,easy,control,Experiment 1 (no preview),3,hidden,3.0,,,,3.0,bb,ba,bb,bb,1.0,6612.521000000183,0.9990010960430369,0.00026397762532284313,2.394350467560969,1.0,0.9995003331112592,0.00019984012789768185,2.3954445198413707,1.0
11,21.0,easy,control,Experiment 1 (no preview),4,visible,3.0,b,3.0,,3.0,a,b,b,b,1.0,4438.461000000185,0.00019984012789768185,0.9995003331112592,2.3954445198413707,1.0,,,,
11,21.0,easy,control,Experiment 1 (no preview),5,hidden,0.0,,,,3.0,ab,aa,aa,ab,0.0,12846.28300000017,0.00044386798101614855,0.38444598800921914,1.5734069013469103,0.0,0.0003328894806924102,0.38457397723777303,1.5747765551819801,0.0
11,21.0,easy,control,Experiment 1 (no preview),6,visible,0.0,a,2.0,,2.0,a,b,b,b,1.0,12574.897999999812,7.689941556444173e-05,0.9990013315579229,2.396218281392328,1.0,,,,
11,21.0,easy,control,Experiment 1 (no preview),7,hidden,2.0,,,,3.0,aa,ab,ab,ab,1.0,15977.854999999809,0.00017483663005276456,0.3845355467186355,1.5762737708044676,1.0,0.00011106175033318526,0.0002497502497502498,0.0013843876972016466,1.0
11,21.0,easy,control,Experiment 1 (no preview),8,visible,0.0,a,2.0,,0.0,a,b,a,a,1.0,7661.0349999998,0.6152722239310982,0.0003328894806924102,1.9641696507139375,1.0,,,,
11,21.0,easy,control,Experiment 1 (no preview),9,hidden,0.0,,,,0.0,aa,ab,aa,ab,0.0,13172.994000000355,0.615222377911337,0.0004437202927147591,1.962995938840948,0.0,0.6152722239310982,0.0003328894806924102,1.9641696507139375,0.0
11,21.0,easy,control,Experiment 1 (no preview),10,hidden,2.0,,,,2.0,aa,bb,bb,bb,1.0,4824.79600000038,0.6151441601200953,0.998336522074635,0.4290679166023812,1.0,0.9996668147490004,0.9990013315579229,0.0006053512100200918,0.0
11,21.0,easy,control,Experiment 1 (no preview),11,visible,0.0,b,2.0,,2.0,a,b,b,b,1.0,1705.432000000379,7.689941556444173e-05,0.9990013315579229,2.396218281392328,1.0,,,,
11,21.0,easy,control,Experiment 1 (no preview),12,hidden,3.0,,,,1.0,aa,ba,ba,aa,0.0,2999.2569999998086,0.000761605817416948,0.5994207606806432,1.9374951193369958,0.0,0.0009960159362549805,0.5997202238209431,1.9355995050066217,0.0
11,21.0,easy,control,Experiment 1 (no preview),13,hidden,0.0,,,,2.0,aa,bb,bb,bb,1.0,14530.047999999602,0.00018803135387702059,0.9985025584091223,2.394654486874102,1.0,7.689941556444173e-05,0.9990013315579229,2.396218281392328,1.0
11,21.0,easy,control,Experiment 1 (no preview),14,hidden,3.0,,,,2.0,ab,ba,ab,ab,1.0,7407.605999999796,0.4000794208888802,0.00036641911019567105,1.6059392472901965,1.0,0.0004990019960079841,0.00019984012789768185,0.0029812039423151916,1.0
11,21.0,easy,control,Experiment 1 (no preview),15,visible,3.0,b,3.0,,0.0,a,b,a,a,1.0,6666.179000000353,0.39988009592326135,0.00016655562958027982,1.6075339047269281,1.0,,,,
11,21.0,easy,control,Experiment 1 (no preview),16,hidden,3.0,,,,2.0,aa,bb,aa,aa,1.0,8840.878000000026,0.40034424797701723,0.0004993756522178447,1.6051448424075287,1.0,0.0009960159362549805,0.00016655562958027982,0.008246713104332101,1.0
11,21.0,easy,control,Experiment 1 (no preview),17,visible,2.0,a,3.0,,3.0,a,b,b,b,1.0,4505.375,0.00019984012789768185,0.9995003331112592,2.3954445198413707,1.0,,,,
11,21.0,easy,control,Experiment 1 (no preview),18,visible,2.0,b,2.0,,2.0,a,b,b,b,1.0,1527.1720000000205,7.689941556444173e-05,0.9990013315579229,2.396218281392328,1.0,,,,
11,21.0,easy,control,Experiment 1 (no preview),19,hidden,2.0,,,,1.0,ab,aa,aa,aa,1.0,4756.561999999976,0.0002177813244585842,0.23070520742143222,1.1938817352918756,1.0,0.0002497502497502498,0.00011106175033318526,0.0013843876972015239,0.0
11,21.0,easy,control,Experiment 1 (no preview),20,visible,0.0,b,2.0,,3.0,a,b,a,a,1.0,1799.6849999999977,0.38457397723777303,0.0003328894806924102,1.5747765551819801,1.0,,,,
12,22.0,hard,control,Experiment 1 (no preview),1,visible,2.0,a,2.0,,2.0,a,b,a,a,1.0,1604.373999997013,0.999571673329526,0.00014277555682467162,2.3960790717905933,1.0,,,,
12,22.0,hard,control,Experiment 1 (no preview),2,hidden,1.0,,,,3.0,aa,ba,aa,ba,0.0,2489.596999997011,0.49925158508142187,0.0004741643484334479,1.7857808951289416,0.0,0.9990013315579227,0.0004990019960079841,2.392009368949709,0.0
12,22.0,hard,control,Experiment 1 (no preview),3,hidden,1.0,,,,0.0,aa,bb,aa,bb,0.0,2771.6080000089423,0.24986713784613238,0.00017847981764730926,1.25060008295597,0.0,0.00033288948069241014,0.00012493753123438283,0.0020747708099496083,0.0
12,22.0,hard,control,Experiment 1 (no preview),4,hidden,0.0,,,,0.0,aa,bb,aa,aa,1.0,971.681999997032,0.39964718526256615,0.0002675981372427261,1.6060596265766391,1.0,0.39988009592326135,0.00012493753123438283,1.6079494800295842,1.0
12,22.0,hard,control,Experiment 1 (no preview),5,hidden,1.0,,,,3.0,ab,ba,ab,ba,0.0,2935.7289999970235,0.7488774205227078,0.0004741643484334479,2.1340141715868293,0.0,0.9990013315579227,0.0004990019960079841,2.392009368949709,0.0
12,22.0,hard,control,Experiment 1 (no preview),6,visible,3.0,a,2.0,,2.0,a,b,a,a,1.0,3050.599999997008,0.999571673329526,0.00014277555682467162,2.3960790717905933,1.0,,,,
12,22.0,hard,control,Experiment 1 (no preview),7,hidden,3.0,,,,3.0,aa,ba,aa,ba,0.0,3208.829999999987,0.39956651333644244,0.00028901063431472474,1.605684625053098,0.0,0.00014277555682467162,0.00014277555682467162,0.0,
12,22.0,hard,control,Experiment 1 (no preview),8,hidden,0.0,,,,3.0,aa,ab,ab,aa,0.0,4209.361999999994,0.0005324112293381153,0.37506210066709933,1.5529653584340075,0.0,0.00019984012789768185,0.37493753123438284,1.5560166890757219,0.0
12,22.0,hard,control,Experiment 1 (no preview),9,hidden,2.0,,,,1.0,ba,ab,ab,ab,1.0,3229.3060000059486,0.285480130919648,0.5710717586923064,0.5543864235526129,1.0,0.49950099800399206,0.571245002855511,0.11303656206636947,1.0
12,22.0,hard,control,Experiment 1 (no preview),10,visible,0.0,a,3.0,,0.0,a,b,a,a,1.0,6820.135000000009,0.39988009592326135,0.00012493753123438283,1.6079494800295842,1.0,,,,
12,22.0,hard,control,Experiment 1 (no preview),11,hidden,1.0,,,,2.0,ab,ba,ba,ba,1.0,5184.1479999999865,0.000540539026047252,0.30015954860775007,1.3813023195398002,1.0,0.00033288948069241014,0.0004990019960079841,0.0016542447713368488,1.0
12,22.0,hard,control,Experiment 1 (no preview),12,visible,2.0,a,2.0,,0.0,a,b,b,b,1.0,724.310000005964,0.00014277555682467162,0.42846944603083953,1.6633880677375703,1.0,,,,
12,22.0,hard,control,Experiment 1 (no preview),13,visible,0.0,b,3.0,,3.0,a,b,b,a,0.0,5625.325000000012,0.00019984012789768185,0.37493753123438284,1.5560166890757219,0.0,,,,
12,22.0,hard,control,Experiment 1 (no preview),14,hidden,2.0,,,,3.0,ba,ab,ba,ba,1.0,3669.547000000021,0.42832664843047386,0.0004102492288107649,1.6604504587505253,1.0,0.0004990019960079841,0.00014277555682467162,0.003550873779371385,1.0
12,22.0,hard,control,Experiment 1 (no preview),15,hidden,3.0,,,,1.0,ba,bb,bb,bb,1.0,2866.570000000007,0.0002265835421021752,0.3570304103902541,1.5173164739287495,1.0,0.00014277555682467162,0.571245002855511,1.90253727797734,1.0
12,22.0,hard,control,Experiment 1 (no preview),16,visible,1.0,b,1.0,,3.0,a,b,b,b,1.0,4386.199000000022,0.0004990019960079841,0.49987506246876556,1.7865736072528648,1.0,,,,
12,22.0,hard,control,Experiment 1 (no preview),17,visible,1.0,a,1.0,,0.0,a,b,a,b,0.0,994.6910000029602,0.49950099800399206,0.00012493753123438283,1.7896788577128855,0.0,,,,
12,22.0,hard,control,Experiment 1 (no preview),18,visible,2.0,b,1.0,,0.0,a,b,a,a,1.0,574.8340000089374,0.49950099800399206,0.00012493753123438283,1.7896788577128855,1.0,,,,
12,22.0,hard,control,Experiment 1 (no preview),19,visible,3.0,b,2.0,,1.0,a,b,b,b,1.0,1244.078000005975,0.00014277555682467162,0.571245002855511,1.90253727797734,1.0,,,,
12,22.0,hard,control,Experiment 1 (no preview),20,visible,2.0,a,2.0,,1.0,a,b,b,b,1.0,758.1160000030068,0.00014277555682467162,0.571245002855511,1.90253727797734,1.0,,,,
13,21.0,easy,prediction,Experiment 1 (no preview),1,visible,3.0,b,3.0,a,,1.0,3.0,1.0,1,1.0,4482.997000000003,0.6663890739506995,0.00016655562958027982,2.03485561344444,1.0,,,,
13,21.0,easy,prediction,Experiment 1 (no preview),2,visible,2.0,a,3.0,a,,0.0,3.0,0.0,0,1.0,10566.342000000004,0.3332778147901399,0.00016655562958027982,1.4645447700752119,1.0,,,,
13,21.0,easy,prediction,Experiment 1 (no preview),3,hidden,2.0,a,,a,,3.0,1.0,1.0,3,0.0,4969.538999809243,0.0001804828643798828,0.333251953125,1.4643460487783193,0.0,0.00011104345321655273,0.00011104345321655273,0.0,
13,21.0,easy,prediction,Experiment 1 (no preview),4,hidden,2.0,a,,b,,0.0,3.0,3.0,3,1.0,4388.11799980927,0.00041604042053222656,0.49951171875,1.7867935621748539,1.0,0.00033283233642578125,0.00033283233642578125,0.0,
13,21.0,easy,prediction,Experiment 1 (no preview),5,visible,2.0,b,2.0,a,,1.0,3.0,3.0,3,1.0,5709.791000095371,8.330556481172943e-05,0.49991669443518827,1.7907879081306592,1.0,,,,
13,21.0,easy,prediction,Experiment 1 (no preview),6,hidden,2.0,b,,a,,1.0,3.0,3.0,3,1.0,9652.267999809294,0.00019443035125732422,0.499755859375,1.789410069578737,1.0,8.33272933959961e-05,0.5,1.7909265432732473,1.0
13,21.0,easy,prediction,Experiment 1 (no preview),7,hidden,2.0,a,,b,,1.0,3.0,3.0,1,0.0,9726.632999904628,0.00033283233642578125,0.49951171875,1.7876225390724951,0.0,0.00033283233642578125,0.00033283233642578125,0.0,
13,21.0,easy,prediction,Experiment 1 (no preview),8,hidden,1.0,b,,a,,2.0,1.0,2.0,2,1.0,6670.1759999046335,0.99853515625,0.0003330707550048828,2.3932375361638747,1.0,0.99951171875,0.00011104345321655273,2.396341463747904,1.0
13,21.0,easy,prediction,Experiment 1 (no preview),9,hidden,0.0,b,,a,,3.0,0.0,0.0,0,1.0,8624.593999809236,0.49951171875,0.499755859375,0.0004071495516527079,1.0,0.5,0.5,0.0,
13,21.0,easy,prediction,Experiment 1 (no preview),10,hidden,3.0,b,,a,,3.0,1.0,1.0,1,1.0,9418.713999999978,0.0003330707550048828,0.66552734375,2.032069575559771,1.0,0.0001665353775024414,0.66650390625,2.035005639916289,1.0
13,21.0,easy,prediction,Experiment 1 (no preview),11,visible,1.0,a,0.0,a,,2.0,0.0,2.0,2,1.0,6112.875000095344,0.9996668147490004,0.00011106175033318526,2.3964823300095106,1.0,,,,
13,21.0,easy,prediction,Experiment 1 (no preview),12,visible,2.0,a,3.0,a,,3.0,1.0,1.0,1,1.0,9754.598000190745,0.00016655562958027982,0.6663890739506995,2.0348556134444395,1.0,,,,
13,21.0,easy,prediction,Experiment 1 (no preview),13,visible,3.0,b,3.0,b,,1.0,3.0,3.0,3,1.0,4958.127000095381,0.00033288948069241014,0.9990013315579227,2.3936636137210456,1.0,,,,
13,21.0,easy,prediction,Experiment 1 (no preview),14,hidden,3.0,a,,b,,2.0,1.0,2.0,2,1.0,8226.647000190744,0.333251953125,0.00033283233642578125,1.4628264539203912,1.0,0.00033283233642578125,0.00033283233642578125,0.0,
13,21.0,easy,prediction,Experiment 1 (no preview),15,visible,3.0,a,1.0,b,,3.0,0.0,0.0,0,1.0,7196.086000095354,0.0003328894806924102,0.9990013315579229,2.3936636137210456,1.0,,,,
13,21.0,easy,prediction,Experiment 1 (no preview),16,hidden,3.0,a,,a,,2.0,1.0,2.0,2,1.0,8008.576000190747,0.333740234375,0.0008115768432617188,1.4591926179203072,1.0,0.000995635986328125,0.000995635986328125,0.0,
13,21.0,easy,prediction,Experiment 1 (no preview),17,visible,0.0,b,2.0,b,,2.0,3.0,2.0,2,1.0,2473.397000190744,0.9995003331112592,0.00016655562958027982,2.395776756177686,1.0,,,,
13,21.0,easy,prediction,Experiment 1 (no preview),18,hidden,0.0,a,,a,,1.0,0.0,0.0,0,1.0,3041.002999904624,0.00015735626220703125,0.5,1.7901871433584124,1.0,8.33272933959961e-05,0.5,1.7909265432732473,1.0
13,21.0,easy,prediction,Experiment 1 (no preview),19,visible,3.0,a,1.0,a,,0.0,1.0,0.0,0,1.0,6325.085999904608,0.9970119521912354,0.0009960159362549805,2.3852642856712984,1.0,,,,
13,21.0,easy,prediction,Experiment 1 (no preview),20,visible,1.0,b,0.0,b,,2.0,1.0,2.0,2,1.0,3876.8640000953455,0.9990013315579229,0.0003328894806924102,2.3936636137210456,1.0,,,,
14,21.0,easy,explanation,Experiment 1 (no preview),1,hidden,2.0,b,,b,2.0,,,2.0,2,1.0,12427.0,0.25005764162360267,0.0002196685345515839,1.250733369128785,1.0,0.25,7.689941556444171e-05,1.2519942698642346,1.0
14,21.0,easy,explanation,Experiment 1 (no preview),2,visible,0.0,a,2.0,b,2.0,,,2.0,1,0.0,9118.0,0.2498929183323815,7.688167500409926e-05,1.2516884527002459,0.0,,,,
14,21.0,easy,explanation,Experiment 1 (no preview),3,hidden,3.0,a,,b,2.0,,,1.0,1,1.0,3328.0,0.4373929183323815,0.33336739956906436,0.21514365236562247,0.0,0.25,0.00024975024975024975,1.2502685795741957,0.0
14,21.0,easy,explanation,Experiment 1 (no preview),4,visible,3.0,a,1.0,b,0.0,,,1.0,1,1.0,9292.0,0.0625,0.6658897814377492,1.5503602691553928,1.0,,,,
14,21.0,easy,explanation,Experiment 1 (no preview),5,visible,2.0,a,0.0,b,2.0,,,1.0,1,1.0,3763.0,3.5693889206167905e-05,0.5382486067036988,1.8532008119319925,1.0,,,,
14,21.0,easy,explanation,Experiment 1 (no preview),6,visible,0.0,a,2.0,a,0.0,,,2.0,2,1.0,4907.0,0.1345932020916641,0.0001427426187540415,0.8512563648368568,1.0,,,,
14,21.0,easy,explanation,Experiment 1 (no preview),7,visible,0.0,b,2.0,b,2.0,,,2.0,2,1.0,3888.0,0.9993410738970446,1.922485389111043e-05,2.3971038395204864,1.0,,,,
14,21.0,easy,explanation,Experiment 1 (no preview),8,hidden,0.0,a,,a,0.0,,,2.0,2,1.0,3843.0,0.4677445679557774,0.0002004171804273728,1.7344992611512207,1.0,7.689941556444171e-05,0.00014277555682467162,0.0006580386632475806,0.0
14,21.0,easy,explanation,Experiment 1 (no preview),9,hidden,0.0,b,,b,2.0,,,2.0,1,0.0,9224.0,0.999398748458718,0.2500656267620504,1.1443980750991551,0.0,0.999571673329526,0.9997693017533067,0.00017971603907875495,1.0
14,21.0,easy,explanation,Experiment 1 (no preview),10,visible,2.0,a,0.0,a,2.0,,,1.0,2,0.0,2463.0,0.0001427426187540415,0.1345932020916641,0.8512563648368568,0.0,,,,
14,21.0,easy,explanation,Experiment 1 (no preview),11,visible,0.0,b,2.0,a,3.0,,,2.0,2,1.0,1765.0,0.4613669316995996,3.5693889206167905e-05,1.7248476977220608,1.0,,,,
14,21.0,easy,explanation,Experiment 1 (no preview),12,hidden,3.0,a,,a,2.0,,,1.0,2,0.0,943.0,0.2500656267620504,0.2501248453819669,0.00016915003106589082,0.0,0.9997693017533067,0.25,1.144922556628685,1.0
14,21.0,easy,explanation,Experiment 1 (no preview),13,hidden,3.0,a,,b,0.0,,,1.0,1,1.0,2168.000000000058,0.18753569388920616,0.6660605886252412,0.9799142588453309,1.0,0.25,0.999250749250749,1.144450935179001,1.0
14,21.0,easy,explanation,Experiment 1 (no preview),14,hidden,0.0,b,,a,0.0,,,2.0,2,1.0,1187.0,0.5383510832850166,0.18753569388920616,0.7975414140836466,1.0,0.5383728083666564,0.25,0.6009892973343887,1.0
14,21.0,easy,explanation,Experiment 1 (no preview),15,visible,0.0,b,2.0,a,0.0,,,2.0,2,1.0,592.0,0.5382486067036988,3.5693889206167905e-05,1.8532008119319925,1.0,,,,
14,21.0,easy,explanation,Experiment 1 (no preview),16,hidden,3.0,b,,a,0.0,,,2.0,2,1.0,2133.0,0.6660605886252412,0.18753569388920616,0.9799142588453309,1.0,0.999250749250749,0.25,1.144450935179001,1.0
14,21.0,easy,explanation,Experiment 1 (no preview),17,visible,3.0,a,0.0,a,2.0,,,1.0,2,0.0,1649.0000000000582,0.24994232543832667,0.08331945369753498,0.6465380768549596,1.0,,,,
14,21.0,easy,explanation,Experiment 1 (no preview),18,hidden,2.0,a,,a,2.0,,,1.0,2,0.0,3268.0,0.0002196685345515839,0.25005764162360267,1.250733369128785,0.0,7.689941556444171e-05,0.25,1.2519942698642346,0.0
14,21.0,easy,explanation,Experiment 1 (no preview),19,visible,3.0,a,1.0,a,0.0,,,1.0,2,0.0,827.0,0.24981268731268724,0.16659726848767487,0.2716586701579302,1.0,,,,
14,21.0,easy,explanation,Experiment 1 (no preview),20,hidden,0.0,a,,a,3.0,,,2.0,2,1.0,413.0,0.11549164952427741,0.0002004171804273728,0.765749807366315,1.0,7.689941556444171e-05,0.00014277555682467162,0.0006580386632475806,0.0
15,22.0,hard,explanation,Experiment 1 (no preview),1,visible,1.0,b,3.0,a,2.0,,,1.0,2,0.0,4591.160000000033,0.0002992615887330056,0.34258718096910246,1.4844791312672772,0.0,,,,
15,22.0,hard,explanation,Experiment 1 (no preview),2,visible,3.0,b,2.0,b,0.0,,,2.0,2,1.0,6871.5,0.299760225131021,4.7587887608756335e-05,1.3852189785315066,1.0,,,,
15,22.0,hard,explanation,Experiment 1 (no preview),3,visible,0.0,a,3.0,a,0.0,,,2.0,2,1.0,3232.5,0.39948074829084795,0.0001426329713817708,1.6069735559256846,1.0,,,,
15,22.0,hard,explanation,Experiment 1 (no preview),4,hidden,3.0,b,,a,2.0,,,2.0,2,1.0,5840.239999999991,0.5998234074893449,0.24485625005324785,0.7077003645120654,1.0,0.9997500833055648,0.00016655562958027982,2.3960038791951606,1.0
15,22.0,hard,explanation,Experiment 1 (no preview),5,visible,3.0,b,2.0,a,2.0,,,2.0,1,0.0,2046.859999999986,0.5995703437250198,9.514407109518838e-05,1.944345177549572,0.0,,,,
15,22.0,hard,explanation,Experiment 1 (no preview),6,hidden,1.0,b,,b,2.0,,,1.0,1,1.0,466.8800000000047,0.0005512344793831205,0.3600637445350617,1.5206976615465744,1.0,0.00033288948069241014,0.5997202238209431,1.9421870226036604,1.0
15,22.0,hard,explanation,Experiment 1 (no preview),7,hidden,1.0,a,,a,0.0,,,2.0,2,1.0,860.9000000000233,0.43955677079671085,0.0005155881028572487,1.6804351867283243,1.0,0.39988009592326135,0.00033288948069241014,1.6058747092196346,1.0
15,22.0,hard,explanation,Experiment 1 (no preview),8,visible,3.0,a,0.0,b,3.0,,,1.0,2,0.0,783.9200000000419,0.0001426329713817708,0.39948074829084795,1.6069735559256846,0.0,,,,
15,22.0,hard,explanation,Experiment 1 (no preview),9,visible,1.0,a,0.0,a,3.0,,,1.0,1,1.0,1758.939999999944,0.00019964055386848976,0.49900216212049936,1.7881006063014289,1.0,,,,
15,22.0,hard,explanation,Experiment 1 (no preview),10,hidden,2.0,b,,b,3.0,,,1.0,1,1.0,774.4000000000233,0.00033539029590158646,0.49958374152915364,1.7877171731737072,1.0,0.00016655562958027982,0.9990013315579227,2.395322809228339,1.0
15,22.0,hard,explanation,Experiment 1 (no preview),11,hidden,0.0,a,,a,0.0,,,2.0,1,0.0,554.1800000000512,0.3996471654656314,0.0003091996071936915,1.6056447685808475,0.0,0.39988009592326135,0.00014277555682467162,1.607771338227669,0.0
15,22.0,hard,explanation,Experiment 1 (no preview),12,visible,0.0,b,3.0,b,3.0,,,2.0,1,0.0,2097.939999999944,0.4280415471166942,0.00019964055386848973,1.662010366973968,0.0,,,,
15,22.0,hard,explanation,Experiment 1 (no preview),13,hidden,1.0,b,,a,2.0,,,1.0,2,0.0,4006.4000000000233,0.0012136694986544924,0.34266719286779024,1.4755844082458631,0.0,0.00033288948069241014,0.571245002855511,1.9006406489693055,0.0
15,22.0,hard,explanation,Experiment 1 (no preview),14,hidden,2.0,b,,a,1.0,,,1.0,2,0.0,1455.3399999999674,0.00012494033746402423,0.20012310883031187,1.0977739437402978,0.0,8.330556481172943e-05,0.00033288948069241014,0.0024906574525663514,0.0
15,22.0,hard,explanation,Experiment 1 (no preview),15,hidden,3.0,a,,a,3.0,,,1.0,2,0.0,223.40000000002328,0.0002759174931734156,0.39978610862542474,1.6062546627637733,0.0,8.330556481172943e-05,0.00016655562958027982,0.000831461945272691,0.0
15,22.0,hard,explanation,Experiment 1 (no preview),16,visible,3.0,a,2.0,b,1.0,,,2.0,2,1.0,135.61999999999534,0.2855273573566603,4.9960031974420456e-05,1.34894249484201,1.0,,,,
15,22.0,hard,explanation,Experiment 1 (no preview),17,hidden,3.0,b,,b,3.0,,,2.0,1,0.0,9501.699999999952,0.39978610862542474,0.0002759174931734156,1.6062546627637733,0.0,0.00016655562958027982,8.330556481172943e-05,0.0008314619452728011,0.0
15,22.0,hard,explanation,Experiment 1 (no preview),18,visible,2.0,b,1.0,a,1.0,,,1.0,1,1.0,5234.300000000047,4.161121276274509e-05,0.19987344568049756,1.0977743263566642,1.0,,,,
15,22.0,hard,explanation,Experiment 1 (no preview),19,visible,2.0,b,1.0,b,1.0,,,1.0,1,1.0,8099.040000000037,3.331223724785583e-05,0.24966730429879747,1.2514788903816885,1.0,,,,
15,22.0,hard,explanation,Experiment 1 (no preview),20,hidden,2.0,a,,b,1.0,,,2.0,2,1.0,2161.9599999999627,0.20012310883031187,0.00012494033746402423,1.0977739437402978,1.0,0.00033288948069241014,8.330556481172943e-05,0.0024906574525663167,1.0
16,22.0,hard,prediction,Experiment 1 (no preview),1,hidden,0.0,a,,a,,1.0,0.0,0.0,1,0.0,4886.600000000006,0.00022602081298828125,0.42822265625,1.6620900485702101,0.0,0.00014281272888183594,0.428466796875,1.6633826836508336,0.0
16,22.0,hard,prediction,Experiment 1 (no preview),2,visible,2.0,b,1.0,a,,3.0,1.0,1.0,3,0.0,1137.320000000007,0.0003328894806924102,0.3332223701731025,1.4627576008684884,0.0,,,,
16,22.0,hard,prediction,Experiment 1 (no preview),3,visible,2.0,b,1.0,b,,1.0,0.0,1.0,0,0.0,1883.7399999999907,0.3332223701731025,0.0003328894806924102,1.4627576008684886,0.0,,,,
16,22.0,hard,prediction,Experiment 1 (no preview),4,visible,0.0,b,3.0,a,,2.0,1.0,2.0,2,1.0,5349.160000000004,0.571245002855511,0.00014277555682467162,1.90253727797734,1.0,,,,
16,22.0,hard,prediction,Experiment 1 (no preview),5,hidden,3.0,a,,a,,0.0,3.0,3.0,0,0.0,2084.3800000000047,0.0003151893615722656,0.42822265625,1.6612007694601192,0.0,9.08970832824707e-05,9.08970832824707e-05,0.0,
16,22.0,hard,prediction,Experiment 1 (no preview),6,hidden,3.0,a,,b,,2.0,3.0,3.0,3,1.0,1253.4400000000023,0.00028777122497558594,0.428466796875,1.6619362125733301,1.0,0.0001665353775024414,0.0001665353775024414,0.0,
16,22.0,hard,prediction,Experiment 1 (no preview),7,hidden,1.0,b,,a,,3.0,2.0,2.0,2,1.0,1261.0200000000186,0.0005388259887695312,0.380859375,1.5650308865529317,1.0,0.00014281272888183594,0.5712890625,1.9026025433254117,1.0
16,22.0,hard,prediction,Experiment 1 (no preview),8,visible,3.0,b,2.0,a,,1.0,2.0,2.0,2,1.0,3376.4799999999814,9.087604507451837e-05,0.9997273718647764,2.3967390505427746,1.0,,,,
16,22.0,hard,prediction,Experiment 1 (no preview),9,hidden,2.0,a,,b,,1.0,2.0,1.0,1,1.0,15169.340000000026,0.666015625,0.00022101402282714844,2.0338246802557425,1.0,0.66650390625,0.0001665353775024414,2.035005639916289,1.0
16,22.0,hard,prediction,Experiment 1 (no preview),10,visible,2.0,a,2.0,b,,0.0,3.0,0.0,3,0.0,7600.979999999981,0.3332778147901399,0.00016655562958027982,1.4645447700752119,0.0,,,,
16,22.0,hard,prediction,Experiment 1 (no preview),11,visible,1.0,a,0.0,a,,3.0,0.0,3.0,0,0.0,4197.520000000019,0.9992507492507492,0.0002497502497502498,2.3947195147531968,0.0,,,,
16,22.0,hard,prediction,Experiment 1 (no preview),12,visible,0.0,a,3.0,a,,3.0,0.0,0.0,3,0.0,4148.520000000019,0.00014277555682467162,0.42846944603083953,1.6633880677375703,0.0,,,,
16,22.0,hard,prediction,Experiment 1 (no preview),13,hidden,1.0,b,,a,,3.0,0.0,0.0,3,0.0,25833.52000000002,0.0005388259887695312,0.50732421875,1.7985188003524768,0.0,0.00014281272888183594,0.428466796875,1.6633826836508336,0.0
16,22.0,hard,prediction,Experiment 1 (no preview),14,hidden,1.0,a,,a,,3.0,2.0,3.0,2,0.0,2468.9400000000023,0.66552734375,0.0008001327514648438,2.0274252619621413,0.0,0.9990234375,0.0002498626708984375,2.394511584062472,0.0
16,22.0,hard,prediction,Experiment 1 (no preview),15,visible,1.0,b,3.0,b,,3.0,0.0,3.0,3,1.0,2329.2399999999907,0.3998800959232614,0.00019984012789768188,1.6072016683906132,1.0,,,,
16,22.0,hard,prediction,Experiment 1 (no preview),16,hidden,2.0,b,,b,,1.0,3.0,3.0,1,0.0,2163.2399999999907,0.2222900390625,0.77685546875,1.0008902943599396,0.0,0.333251953125,0.666015625,0.5698831310408444,0.0
16,22.0,hard,prediction,Experiment 1 (no preview),17,hidden,2.0,a,,a,,2.0,3.0,2.0,3,0.0,6783.039999999979,0.99951171875,0.00018167495727539062,2.395636180924373,0.0,0.99951171875,9.08970832824707e-05,2.3965427242346715,0.0
16,22.0,hard,prediction,Experiment 1 (no preview),18,visible,0.0,a,3.0,b,,2.0,1.0,2.0,2,1.0,7174.799999999988,0.5997202238209433,0.00019984012789768188,1.943513981774639,1.0,,,,
16,22.0,hard,prediction,Experiment 1 (no preview),19,visible,3.0,a,0.0,b,,3.0,0.0,3.0,0,0.0,1498.8800000000049,0.9992507492507492,0.0002497502497502498,2.3947195147531968,0.0,,,,
16,22.0,hard,prediction,Experiment 1 (no preview),20,hidden,3.0,b,,b,,1.0,3.0,1.0,1,1.0,942.359999999986,0.39990234375,0.1602783203125,0.6526612456269988,1.0,0.66650390625,0.0001665353775024414,2.035005639916289,1.0
17,22.0,hard,prediction,Experiment 1 (no preview),1,hidden,2.0,a,,b,,1.0,2.0,1.0,1,1.0,2179.450999928464,0.62451171875,0.00019156932830810547,1.9784138899072756,1.0,0.625,0.00012493133544921875,1.979752935254659,1.0
17,22.0,hard,prediction,Experiment 1 (no preview),2,hidden,0.0,a,,a,,1.0,0.0,0.0,1,0.0,15678.225999928489,0.1251220703125,0.1251220703125,0.0,,0.25,0.25,0.0,
17,22.0,hard,prediction,Experiment 1 (no preview),3,visible,1.0,b,3.0,b,,3.0,0.0,3.0,3,1.0,977.6109999999752,0.39994002399040385,9.996001599360259e-05,1.6083188523277088,1.0,,,,
17,22.0,hard,prediction,Experiment 1 (no preview),4,visible,2.0,b,1.0,a,,3.0,1.0,1.0,1,1.0,4597.269999904616,0.25,0.25,0.0,0.0,,,,
17,22.0,hard,prediction,Experiment 1 (no preview),5,visible,1.0,a,0.0,a,,3.0,0.0,3.0,3,1.0,5154.97399992845,0.25,0.25,0.0,1.0,,,,
17,22.0,hard,prediction,Experiment 1 (no preview),6,hidden,2.0,b,,b,,1.0,3.0,3.0,1,0.0,4613.6999999761465,0.341064453125,0.65869140625,0.5424040983605226,0.0,0.54541015625,0.45458984375,0.15165719559302035,1.0
17,22.0,hard,prediction,Experiment 1 (no preview),7,hidden,2.0,a,,a,,2.0,3.0,2.0,2,1.0,654.0719999523135,0.99951171875,0.0001666545867919922,2.395786123482374,1.0,0.99951171875,0.00011104345321655273,2.396341463747904,1.0
17,22.0,hard,prediction,Experiment 1 (no preview),8,visible,0.0,a,3.0,b,,2.0,1.0,2.0,1,0.0,4796.742000000028,0.599860055977609,9.996001599360259e-05,1.9447111081442723,0.0,,,,
17,22.0,hard,prediction,Experiment 1 (no preview),9,hidden,1.0,b,,a,,3.0,0.0,0.0,3,0.0,5564.943000000028,0.1365966796875,0.1365966796875,0.0,,0.25,0.25,0.0,
17,22.0,hard,prediction,Experiment 1 (no preview),10,visible,3.0,b,2.0,a,,1.0,2.0,2.0,2,1.0,1138.1479999761796,0.00011106175033318526,0.9996668147490004,2.3964823300095106,1.0,,,,
17,22.0,hard,prediction,Experiment 1 (no preview),11,hidden,3.0,a,,a,,0.0,3.0,3.0,0,0.0,2296.994999928458,0.00036072731018066406,0.00036072731018066406,0.0,,0.00011104345321655273,0.00011104345321655273,0.0,
17,22.0,hard,prediction,Experiment 1 (no preview),12,hidden,3.0,a,,b,,2.0,3.0,3.0,2,0.0,7027.549999999988,0.00042438507080078125,0.0010499954223632812,0.00621034159042344,0.0,0.00012493133544921875,0.00012493133544921875,0.0,
17,22.0,hard,prediction,Experiment 1 (no preview),13,hidden,1.0,a,,a,,3.0,2.0,3.0,2,0.0,3656.6659999761614,0.1251220703125,0.62451171875,1.1688551467702752,1.0,0.25,0.25,0.0,
17,22.0,hard,prediction,Experiment 1 (no preview),14,visible,2.0,b,1.0,b,,1.0,0.0,1.0,1,1.0,1385.0539999761386,0.5453471464921846,9.087604507451837e-05,1.8637098498615852,1.0,,,,
17,22.0,hard,prediction,Experiment 1 (no preview),15,visible,0.0,b,3.0,a,,2.0,1.0,2.0,2,1.0,1103.1429999999818,0.9985029940119762,0.0004990019960079841,2.3915558203048297,1.0,,,,
17,22.0,hard,prediction,Experiment 1 (no preview),16,visible,2.0,a,2.0,b,,0.0,3.0,0.0,3,0.0,2471.515999976138,0.3749375312343829,0.00012493753123438286,1.556764500714693,0.0,,,,
17,22.0,hard,prediction,Experiment 1 (no preview),17,hidden,1.0,b,,a,,3.0,2.0,2.0,2,1.0,2067.4689999523107,0.1365966796875,0.59033203125,1.0708157685562947,1.0,0.25,0.25,0.0,
17,22.0,hard,prediction,Experiment 1 (no preview),18,visible,0.0,a,3.0,a,,3.0,0.0,0.0,0,1.0,2043.646000000008,0.0004990019960079841,0.0004990019960079841,0.0,1.0,,,,
17,22.0,hard,prediction,Experiment 1 (no preview),19,visible,3.0,a,0.0,b,,3.0,0.0,3.0,3,1.0,2781.4379999046214,0.9990013315579227,0.00033288948069241014,2.3936636137210456,1.0,,,,
17,22.0,hard,prediction,Experiment 1 (no preview),20,hidden,3.0,b,,b,,1.0,3.0,1.0,1,1.0,2115.606999952288,0.375,0.16015625,0.6020323919857232,1.0,0.625,0.00012493133544921875,1.979752935254659,1.0
18,22.0,hard,explanation,Experiment 1 (no preview),1,hidden,1.0,a,,a,0.0,,,2.0,2,1.0,4547.619999999995,0.4995942629531777,0.0004159370924038066,1.7869322674186912,1.0,0.4998750624687657,0.000499001996007984,1.786573607252865,1.0
18,22.0,hard,explanation,Experiment 1 (no preview),2,visible,3.0,a,2.0,b,1.0,,,2.0,1,0.0,3694.720000000001,0.41636828571057566,9.987015382698836e-05,1.6406518537374823,0.0,,,,
18,22.0,hard,explanation,Experiment 1 (no preview),3,hidden,1.0,b,,b,2.0,,,1.0,2,0.0,4110.100000000006,0.0004523659276126215,0.12528084529632372,0.8076641808958728,0.0,0.000499001996007984,0.00012493753123438286,0.0037290155812863043,1.0
18,22.0,hard,explanation,Experiment 1 (no preview),4,visible,2.0,b,1.0,b,1.0,,,1.0,2,0.0,1282.8399999999965,0.0001497802756795563,0.3331112799696088,1.4643278244474576,0.0,,,,
18,22.0,hard,explanation,Experiment 1 (no preview),5,hidden,2.0,b,,b,3.0,,,1.0,1,1.0,2960.420000000013,0.0004908843382848397,0.3331946187888868,1.4611200727643234,1.0,0.00016655562958027982,0.00012493753123438286,0.00041557530265595727,0.0
18,22.0,hard,explanation,Experiment 1 (no preview),6,visible,1.0,a,0.0,a,3.0,,,1.0,2,0.0,3365.1600000000035,0.00024962545781999487,0.499126746506986,1.7878098424736018,0.0,,,,
18,22.0,hard,explanation,Experiment 1 (no preview),7,visible,2.0,b,1.0,a,1.0,,,1.0,2,0.0,1082.9400000000023,9.989509641661985e-05,0.4994589437877246,1.7898588496991124,0.0,,,,
18,22.0,hard,explanation,Experiment 1 (no preview),8,visible,0.0,a,3.0,a,0.0,,,2.0,2,1.0,1210.9400000000023,0.499002120633857,0.00012487510408686398,1.7888469804115643,1.0,,,,
18,22.0,hard,explanation,Experiment 1 (no preview),9,hidden,3.0,b,,a,2.0,,,2.0,2,1.0,331.85999999998603,0.4996587194591163,0.23436985096938093,0.5841129739244425,1.0,0.00016655562958027982,0.00016655562958027982,0.0,
18,22.0,hard,explanation,Experiment 1 (no preview),10,hidden,2.0,a,,b,1.0,,,2.0,1,0.0,1133.0199999999895,0.49973626174333646,0.00029969861070431724,1.7883273047335175,0.0,0.7495004995004996,0.00019984012789768188,2.1374819359858104,0.0
18,22.0,hard,explanation,Experiment 1 (no preview),11,visible,1.0,b,3.0,a,2.0,,,1.0,1,1.0,2073.420000000013,6.243756243756245e-05,0.1562031484257871,0.9401763115535183,1.0,,,,
18,22.0,hard,explanation,Experiment 1 (no preview),12,visible,3.0,a,0.0,b,3.0,,,1.0,2,0.0,1881.200000000012,0.00012475049900199602,0.4995005410978095,1.7896799635586882,0.0,,,,
18,22.0,hard,explanation,Experiment 1 (no preview),13,visible,0.0,b,3.0,b,3.0,,,2.0,1,0.0,299.5,0.3747501873646788,0.0002493763721308631,1.5551278989115327,0.0,,,,
18,22.0,hard,explanation,Experiment 1 (no preview),14,hidden,2.0,b,,a,1.0,,,1.0,2,0.0,376.320000000007,0.00029969861070431724,0.49973626174333646,1.7883273047335175,0.0,0.00019984012789768188,0.7495004995004996,2.1374819359858104,0.0
18,22.0,hard,explanation,Experiment 1 (no preview),15,visible,3.0,b,2.0,a,2.0,,,2.0,1,0.0,941.8400000000256,0.4994506392887687,0.00010406605491391545,1.7898033291865445,0.0,,,,
18,22.0,hard,explanation,Experiment 1 (no preview),16,hidden,1.0,b,,a,2.0,,,1.0,2,0.0,2546.820000000007,0.00033301035304672945,0.15639050258590848,0.9382069259608917,0.0,0.00016655562958027982,0.0002497502497502498,0.0008302181260505893,0.0
18,22.0,hard,explanation,Experiment 1 (no preview),17,hidden,0.0,a,,a,0.0,,,2.0,2,1.0,311.2399999999907,0.49925174211999784,0.00018050910925606755,1.7887081306159394,1.0,0.4997502497502497,0.00012493753123438283,1.790094536663086,1.0
18,22.0,hard,explanation,Experiment 1 (no preview),18,hidden,3.0,b,,b,3.0,,,2.0,2,1.0,359.1599999999744,0.4992414351558412,0.00034339408417782363,1.7870663362883619,1.0,0.998502994011976,0.00019984012789768188,2.3945370242471444,1.0
18,22.0,hard,explanation,Experiment 1 (no preview),19,hidden,3.0,a,,a,3.0,,,1.0,1,1.0,210.52000000001863,0.00034339408417782363,0.4992414351558412,1.787066336288362,1.0,0.00019984012789768188,0.998502994011976,2.3945370242471444,1.0
18,22.0,hard,explanation,Experiment 1 (no preview),20,visible,3.0,b,2.0,b,0.0,,,2.0,2,1.0,215.67999999999304,0.16655567117758988,0.00012486262863771951,0.979165085877787,1.0,,,,
19,22.0,hard,prediction,Experiment 1 (no preview),1,visible,2.0,b,1.0,a,,3.0,1.0,1.0,1,1.0,9214.0,0.00019984012789768185,0.5997202238209431,1.9435139817746385,1.0,,,,
19,22.0,hard,prediction,Experiment 1 (no preview),2,hidden,3.0,a,,b,,2.0,3.0,3.0,2,0.0,4481.0,0.00033283233642578125,0.399658203125,1.605431288171809,0.0,0.00012493133544921875,0.00012493133544921875,0.0,
19,22.0,hard,prediction,Experiment 1 (no preview),3,visible,1.0,a,0.0,a,,3.0,0.0,3.0,3,1.0,4614.0,0.9992507492507492,0.0002497502497502498,2.3947195147531968,1.0,,,,
19,22.0,hard,prediction,Experiment 1 (no preview),4,hidden,0.0,a,,a,,1.0,0.0,0.0,1,0.0,9763.0,0.0003495216369628906,0.399658203125,1.6052649626305229,0.0,0.00019979476928710938,0.39990234375,1.607246626408262,0.0
19,22.0,hard,prediction,Experiment 1 (no preview),5,visible,3.0,b,2.0,a,,1.0,2.0,2.0,1,0.0,6887.0,0.00019984012789768188,0.999400479616307,2.3953536985597172,0.0,,,,
19,22.0,hard,prediction,Experiment 1 (no preview),6,visible,3.0,a,0.0,b,,3.0,0.0,3.0,3,1.0,10103.0,0.9990013315579227,0.00033288948069241014,2.3936636137210456,1.0,,,,
19,22.0,hard,prediction,Experiment 1 (no preview),7,hidden,2.0,a,,a,,2.0,3.0,2.0,3,0.0,12535.0,0.9990234375,0.00039958953857421875,2.3930191613938034,0.0,0.99951171875,0.00019979476928710938,2.3954553277538095,0.0
19,22.0,hard,prediction,Experiment 1 (no preview),8,visible,0.0,b,3.0,a,,2.0,1.0,2.0,1,0.0,3240.0,0.5997202238209431,0.00019984012789768185,1.9435139817746387,0.0,,,,
19,22.0,hard,prediction,Experiment 1 (no preview),9,hidden,3.0,a,,a,,0.0,3.0,3.0,0,0.0,2181.0,0.0003795623779296875,0.399658203125,1.604965646352182,0.0,0.00019979476928710938,0.00019979476928710938,0.0,
19,22.0,hard,prediction,Experiment 1 (no preview),10,visible,0.0,a,3.0,a,,3.0,0.0,0.0,3,0.0,2386.0,0.00019984012789768185,0.39988009592326135,1.607201668390613,0.0,,,,
19,22.0,hard,prediction,Experiment 1 (no preview),11,hidden,1.0,b,,a,,3.0,0.0,0.0,0,1.0,2512.0,0.00039958953857421875,0.399658203125,1.6047661519273895,1.0,0.00019979476928710938,0.39990234375,1.607246626408262,1.0
19,22.0,hard,prediction,Experiment 1 (no preview),12,visible,1.0,b,3.0,b,,3.0,0.0,3.0,3,1.0,11366.0,0.37493753123438284,0.00012493753123438283,1.556764500714693,1.0,,,,
19,22.0,hard,prediction,Experiment 1 (no preview),13,visible,2.0,b,1.0,b,,1.0,0.0,1.0,1,1.0,4877.0,0.5997202238209433,0.00019984012789768188,1.943513981774639,1.0,,,,
19,22.0,hard,prediction,Experiment 1 (no preview),14,hidden,1.0,a,,a,,3.0,2.0,3.0,3,1.0,1923.0,0.399658203125,0.0005393028259277344,1.6033755469705882,1.0,0.00019979476928710938,0.00019979476928710938,0.0,
19,22.0,hard,prediction,Experiment 1 (no preview),15,hidden,2.0,a,,b,,1.0,2.0,1.0,1,1.0,1435.0,0.62451171875,0.0002498626708984375,1.9778322402587736,1.0,0.625,0.00012493133544921875,1.979752935254659,1.0
19,22.0,hard,prediction,Experiment 1 (no preview),16,visible,0.0,a,3.0,b,,2.0,1.0,2.0,1,0.0,792.0,0.6248125937031483,0.00012493753123438283,1.9794943485155125,0.0,,,,
19,22.0,hard,prediction,Experiment 1 (no preview),17,hidden,3.0,b,,b,,1.0,3.0,1.0,3,0.0,5897.0,0.390625,0.140869140625,0.7114262874742416,0.0,0.625,0.00012493133544921875,1.979752935254659,0.0
19,22.0,hard,prediction,Experiment 1 (no preview),18,hidden,1.0,b,,a,,3.0,2.0,2.0,3,0.0,570.0,0.00039958953857421875,0.2401123046875,1.2201177519869135,0.0,0.00019979476928710938,0.00019979476928710938,0.0,
19,22.0,hard,prediction,Experiment 1 (no preview),19,hidden,2.0,b,,b,,1.0,3.0,3.0,1,0.0,1015.0,0.375,0.62451171875,0.422183132543523,0.0,0.599609375,0.39990234375,0.33610937672301916,1.0
19,22.0,hard,prediction,Experiment 1 (no preview),20,visible,2.0,a,2.0,b,,0.0,3.0,0.0,0,1.0,1599.0,0.3749375312343829,0.00012493753123438286,1.556764500714693,1.0,,,,
20,21.0,easy,prediction,Experiment 1 (no preview),1,hidden,2.0,a,,a,,3.0,1.0,1.0,3,0.0,5159.200000000012,0.0001709461212158203,0.333251953125,1.4644412489295688,0.0,9.08970832824707e-05,9.08970832824707e-05,0.0,
20,21.0,easy,prediction,Experiment 1 (no preview),2,hidden,2.0,a,,b,,0.0,3.0,3.0,3,1.0,9193.200000000012,0.104736328125,0.104736328125,0.0,,0.000995635986328125,0.000995635986328125,0.0,
20,21.0,easy,prediction,Experiment 1 (no preview),3,visible,2.0,b,2.0,a,,1.0,3.0,3.0,3,1.0,3492.5800000000163,8.330556481172943e-05,0.4166111296234588,1.641287529578295,1.0,,,,
20,21.0,easy,prediction,Experiment 1 (no preview),4,visible,3.0,b,3.0,b,,1.0,3.0,3.0,3,1.0,7881.219999999972,0.25,0.25,0.0,1.0,,,,
20,21.0,easy,prediction,Experiment 1 (no preview),5,hidden,0.0,a,,a,,1.0,0.0,0.0,0,1.0,2010.5599999999977,0.00015592575073242188,0.5830078125,1.9197780688963408,1.0,8.33272933959961e-05,0.5830078125,1.9205031860690605,1.0
20,21.0,easy,prediction,Experiment 1 (no preview),6,visible,1.0,a,0.0,a,,2.0,0.0,2.0,2,1.0,4585.559999999998,0.9997273718647764,9.087604507451837e-05,2.3967390505427746,1.0,,,,
20,21.0,easy,prediction,Experiment 1 (no preview),7,hidden,3.0,a,,b,,2.0,1.0,2.0,2,1.0,1672.9199999999837,0.399658203125,0.2001953125,0.5094909664282691,1.0,0.25,0.25,0.0,
20,21.0,easy,prediction,Experiment 1 (no preview),8,visible,1.0,b,0.0,b,,2.0,1.0,2.0,2,1.0,845.2600000000093,0.9970119521912352,0.0009960159362549803,2.3852642856712984,1.0,,,,
20,21.0,easy,prediction,Experiment 1 (no preview),9,hidden,0.0,b,,a,,3.0,0.0,0.0,3,0.0,5681.900000000023,0.415283203125,0.58251953125,0.2810744853659841,0.0,0.41650390625,0.5830078125,0.2794234465573413,0.0
20,21.0,easy,prediction,Experiment 1 (no preview),10,hidden,2.0,b,,a,,1.0,3.0,3.0,3,1.0,3121.2600000000093,0.00016319751739501953,0.41650390625,1.6402820205169952,1.0,8.33272933959961e-05,0.41650390625,1.6410797395117191,1.0
20,21.0,easy,prediction,Experiment 1 (no preview),11,visible,3.0,b,3.0,a,,1.0,3.0,1.0,1,1.0,3987.280000000028,0.799560351718625,0.00019984012789768188,2.1947395527603026,1.0,,,,
20,21.0,easy,prediction,Experiment 1 (no preview),12,visible,3.0,a,1.0,b,,3.0,0.0,0.0,0,1.0,7875.619999999995,0.25,0.25,0.0,0.0,,,,
20,21.0,easy,prediction,Experiment 1 (no preview),13,visible,2.0,a,3.0,a,,0.0,3.0,0.0,0,1.0,4053.919999999984,0.20003996802557952,0.00019984012789768188,1.0967490994147089,1.0,,,,
20,21.0,easy,prediction,Experiment 1 (no preview),14,visible,0.0,b,2.0,b,,2.0,3.0,2.0,2,1.0,2655.960000000021,0.9997001199520191,9.996001599360256e-05,2.3966235165134493,1.0,,,,
20,21.0,easy,prediction,Experiment 1 (no preview),15,hidden,2.0,a,,b,,1.0,3.0,3.0,3,1.0,3895.6199999999953,0.104736328125,0.104736328125,0.0,,0.000995635986328125,0.000995635986328125,0.0,
20,21.0,easy,prediction,Experiment 1 (no preview),16,visible,2.0,a,3.0,a,,3.0,1.0,1.0,1,1.0,4384.320000000007,0.00019984012789768188,0.799560351718625,2.1947395527603026,1.0,,,,
20,21.0,easy,prediction,Experiment 1 (no preview),17,hidden,1.0,b,,a,,2.0,1.0,2.0,2,1.0,7295.619999999995,0.25,0.199951171875,0.15431345349083894,1.0,0.99951171875,9.08970832824707e-05,2.3965427242346715,1.0
20,21.0,easy,prediction,Experiment 1 (no preview),18,visible,3.0,a,1.0,a,,0.0,1.0,0.0,0,1.0,8790.320000000007,0.999250749250749,0.00024975024975024975,2.3947195147531963,1.0,,,,
20,21.0,easy,prediction,Experiment 1 (no preview),19,hidden,3.0,b,,a,,3.0,1.0,1.0,1,1.0,3457.6599999999744,0.10430908203125,0.199951171875,0.38398574577017985,1.0,9.08970832824707e-05,9.08970832824707e-05,0.0,
20,21.0,easy,prediction,Experiment 1 (no preview),20,hidden,3.0,a,,a,,2.0,1.0,2.0,2,1.0,4817.640000000014,0.2001953125,0.000377655029296875,1.095493681468739,1.0,0.0002498626708984375,0.0002498626708984375,0.0,
21,22.0,hard,prediction,Experiment 1 (no preview),1,hidden,3.0,a,,b,,2.0,3.0,3.0,3,1.0,2222.7219999940426,0.0002319812774658203,0.28564453125,1.347428729524038,1.0,0.00012493133544921875,0.00012493133544921875,0.0,
21,22.0,hard,prediction,Experiment 1 (no preview),2,hidden,2.0,a,,a,,2.0,3.0,2.0,2,1.0,905.2249999940396,0.9990234375,0.0003991127014160156,2.3930239107985845,1.0,0.99951171875,0.00019979476928710938,2.3954553277538095,1.0
21,22.0,hard,prediction,Experiment 1 (no preview),3,visible,2.0,b,1.0,a,,3.0,1.0,1.0,3,0.0,3105.734999994049,0.0004990019960079841,0.49950099800399206,1.7859498421315991,0.0,,,,
21,22.0,hard,prediction,Experiment 1 (no preview),4,hidden,1.0,b,,a,,3.0,0.0,0.0,0,1.0,3122.095999997022,0.00045609474182128906,0.413818359375,1.6321490527656903,1.0,0.0004987716674804688,0.49951171875,1.7859700166058208,1.0
21,22.0,hard,prediction,Experiment 1 (no preview),5,visible,0.0,a,3.0,b,,2.0,1.0,2.0,1,0.0,2022.5279999970223,0.5997202238209433,0.00019984012789768188,1.943513981774639,0.0,,,,
21,22.0,hard,prediction,Experiment 1 (no preview),6,visible,2.0,b,1.0,b,,1.0,0.0,1.0,1,1.0,1521.925999997009,0.5998600559776089,9.996001599360256e-05,1.944711108144272,1.0,,,,
21,22.0,hard,prediction,Experiment 1 (no preview),7,hidden,0.0,a,,a,,1.0,0.0,0.0,1,0.0,1989.1940000029865,0.000640869140625,0.285400390625,1.3427243404872702,0.0,0.00014281272888183594,0.28564453125,1.348318747202282,0.0
21,22.0,hard,prediction,Experiment 1 (no preview),8,visible,0.0,a,3.0,a,,3.0,0.0,0.0,3,0.0,4005.3179999999993,0.00014277555682467162,0.2856938892061679,1.3484470984205859,0.0,,,,
21,22.0,hard,prediction,Experiment 1 (no preview),9,hidden,1.0,b,,a,,3.0,2.0,2.0,2,1.0,872.6520000029705,0.00045609474182128906,0.285888671875,1.3458281492298534,1.0,0.0004987716674804688,0.0004987716674804688,0.0,
21,22.0,hard,prediction,Experiment 1 (no preview),10,visible,1.0,a,0.0,a,,3.0,0.0,3.0,0,0.0,3072.27099999701,0.9970119521912352,0.0009960159362549803,2.3852642856712984,0.0,,,,
21,22.0,hard,prediction,Experiment 1 (no preview),11,visible,2.0,a,2.0,b,,0.0,3.0,0.0,0,1.0,1339.500999994052,0.3749375312343829,0.00012493753123438286,1.556764500714693,1.0,,,,
21,22.0,hard,prediction,Experiment 1 (no preview),12,hidden,3.0,a,,a,,0.0,3.0,3.0,3,1.0,1772.2649999940477,0.0005393028259277344,0.284912109375,1.3424662969437409,1.0,0.00019979476928710938,0.00019979476928710938,0.0,
21,22.0,hard,prediction,Experiment 1 (no preview),13,hidden,3.0,b,,b,,1.0,3.0,1.0,1,1.0,1305.842999997025,0.375,0.1602783203125,0.6015632828154185,1.0,0.625,0.00012493133544921875,1.979752935254659,1.0
21,22.0,hard,prediction,Experiment 1 (no preview),14,visible,0.0,b,3.0,a,,2.0,1.0,2.0,2,1.0,938.8499999940396,0.7140205596801827,0.00014277555682467162,2.095388699993462,1.0,,,,
21,22.0,hard,prediction,Experiment 1 (no preview),15,visible,3.0,b,2.0,a,,1.0,2.0,2.0,2,1.0,972.6280000029948,0.00019984012789768188,0.999400479616307,2.3953536985597172,1.0,,,,
21,22.0,hard,prediction,Experiment 1 (no preview),16,visible,3.0,a,0.0,b,,3.0,0.0,3.0,3,1.0,7738.944000002986,0.999400479616307,0.00019984012789768188,2.3953536985597172,1.0,,,,
21,22.0,hard,prediction,Experiment 1 (no preview),17,hidden,2.0,b,,b,,1.0,3.0,3.0,1,0.0,5205.439000002982,0.375,0.62451171875,0.422183132543523,0.0,0.60009765625,0.39990234375,0.336807067395289,1.0
21,22.0,hard,prediction,Experiment 1 (no preview),18,visible,1.0,b,3.0,b,,3.0,0.0,3.0,0,0.0,3788.733999994032,0.3998800959232614,0.00019984012789768188,1.6072016683906132,0.0,,,,
21,22.0,hard,prediction,Experiment 1 (no preview),19,hidden,2.0,a,,b,,1.0,2.0,1.0,1,1.0,1239.2259999970263,0.62451171875,0.0002448558807373047,1.977882184618389,1.0,0.625,0.00012493133544921875,1.979752935254659,1.0
21,22.0,hard,prediction,Experiment 1 (no preview),20,hidden,1.0,a,,a,,3.0,2.0,3.0,2,0.0,738.6410000000033,0.498291015625,0.0016021728515625,1.7730123625281657,0.0,0.9970703125,0.000995635986328125,2.385321245629409,0.0
22,21.0,easy,control,Experiment 1 (no preview),1,visible,3.0,b,3.0,,0.0,a,b,a,a,1.0,1417.8850000000093,0.4997502497502497,0.00016655562958027982,1.7896789613604303,1.0,,,,
22,21.0,easy,control,Experiment 1 (no preview),2,visible,0.0,a,2.0,,2.0,a,b,b,b,1.0,1752.949000017892,9.996001599360256e-05,0.9997273718647764,2.3966482974283556,1.0,,,,
22,21.0,easy,control,Experiment 1 (no preview),3,hidden,2.0,,,,3.0,aa,ab,ab,aa,0.0,13720.443999999989,0.00023987276312361727,0.399890111047469,1.6068222550978097,0.0,0.00016655562958027982,0.0002497502497502498,0.0008302181260505893,0.0
22,21.0,easy,control,Experiment 1 (no preview),4,hidden,3.0,,,,2.0,ab,ba,ab,ab,1.0,12778.277000005968,0.5001232944722,0.0004162804060317716,1.7878107753423862,1.0,0.9992507492507492,0.00024975024975024975,2.3947195147531968,1.0
22,21.0,easy,control,Experiment 1 (no preview),5,visible,0.0,b,2.0,,2.0,a,b,b,b,1.0,2950.056000011915,9.996001599360256e-05,0.9997273718647764,2.3966482974283556,1.0,,,,
22,21.0,easy,control,Experiment 1 (no preview),6,hidden,2.0,,,,1.0,ab,aa,aa,aa,1.0,4013.847999999998,0.0002165361070255176,0.1999701464973823,1.0963497519863092,1.0,0.0002497502497502498,0.00016655562958027982,0.0008302181260506215,0.0
22,21.0,easy,control,Experiment 1 (no preview),7,visible,2.0,a,3.0,,1.0,a,b,a,a,1.0,2259.749999994063,0.4997502497502497,0.00016655562958027982,1.7896789613604303,1.0,,,,
22,21.0,easy,control,Experiment 1 (no preview),8,hidden,3.0,,,,1.0,aa,ba,ba,ba,1.0,6708.94800000597,0.0007058331451055441,0.49950075137955197,1.7838935037943469,1.0,0.00016655562958027982,0.4997502497502497,1.7896789613604303,1.0
22,21.0,easy,control,Experiment 1 (no preview),9,hidden,3.0,,,,3.0,bb,ba,bb,bb,1.0,2470.8640000000014,0.9990011385148064,0.00031643135314914853,2.3938274867425062,1.0,0.9995003331112592,0.00024975024975024975,2.3949465380516357,1.0
22,21.0,easy,control,Experiment 1 (no preview),10,hidden,3.0,,,,2.0,aa,bb,aa,aa,1.0,6394.07000001194,0.49999838765093435,0.0004995793587879813,1.7867734259584183,1.0,0.9995003331112592,0.00016655562958027982,2.395776756177686,1.0
22,21.0,easy,control,Experiment 1 (no preview),11,visible,3.0,b,3.0,,3.0,a,b,b,a,0.0,1973.8960000119405,0.00024975024975024975,0.9995003331112592,2.3949465380516357,0.0,,,,
22,21.0,easy,control,Experiment 1 (no preview),12,visible,0.0,b,2.0,,3.0,a,b,a,a,1.0,873.3159999999916,0.3999400239904038,9.087604507451837e-05,1.6084096054421275,1.0,,,,
22,21.0,easy,control,Experiment 1 (no preview),13,visible,2.0,b,2.0,,2.0,a,b,b,b,1.0,542.5069999999832,9.996001599360256e-05,0.9997273718647764,2.3966482974283556,1.0,,,,
22,21.0,easy,control,Experiment 1 (no preview),14,hidden,0.0,,,,2.0,aa,bb,bb,aa,0.0,562.268999994034,0.00026658996590187765,0.9992281788590875,2.3945310184887805,0.0,9.996001599360256e-05,0.9997273718647764,2.3966482974283556,0.0
22,21.0,easy,control,Experiment 1 (no preview),15,hidden,2.0,,,,2.0,aa,bb,bb,bb,1.0,937.699000017892,0.5996603204444092,0.9995457316616887,0.45205744151334215,1.0,0.9995003331112592,0.9997273718647764,0.0002064713479282407,1.0
22,21.0,easy,control,Experiment 1 (no preview),16,visible,0.0,a,2.0,,0.0,a,b,a,a,1.0,475.946000017866,0.5998600559776089,9.087604507451837e-05,1.9448018612586908,1.0,,,,
22,21.0,easy,control,Experiment 1 (no preview),17,visible,2.0,a,3.0,,3.0,a,b,b,a,0.0,1413.0059999940568,0.00024975024975024975,0.9995003331112592,2.3949465380516357,0.0,,,,
22,21.0,easy,control,Experiment 1 (no preview),18,visible,0.0,a,2.0,,3.0,a,b,a,a,1.0,3835.087000011932,0.3999400239904038,9.087604507451837e-05,1.6084096054421275,1.0,,,,
22,21.0,easy,control,Experiment 1 (no preview),19,hidden,0.0,,,,0.0,aa,ab,aa,ab,0.0,2545.481000005966,0.5998096476814128,0.00025695792880791983,1.9430718966276752,0.0,0.5998600559776089,9.087604507451837e-05,1.9448018612586908,0.0
22,21.0,easy,control,Experiment 1 (no preview),20,hidden,0.0,,,,3.0,ab,aa,aa,aa,1.0,1162.275000017893,0.00025751053394228,0.3997404224330828,1.6063468270558974,1.0,9.087604507451837e-05,0.3999400239904038,1.6084096054421275,1.0
23,21.0,easy,explanation,Experiment 1 (no preview),1,visible,3.0,a,0.0,a,2.0,,,1.0,2,0.0,4456.863000000769,0.000995642616938543,0.3996403596547222,1.5988111854211198,0.0,,,,
23,21.0,easy,explanation,Experiment 1 (no preview),2,hidden,3.0,a,,a,2.0,,,1.0,2,0.0,6470.384000002232,0.0011959487843996278,0.4001395748184484,1.5978284848267128,0.0,0.00019984012789768185,0.0004990019960079841,0.00298120394231516,0.0
23,21.0,easy,explanation,Experiment 1 (no preview),3,visible,0.0,b,2.0,a,0.0,,,2.0,2,1.0,3255.023000000743,0.5711226167122094,0.00014268995996806212,1.902355789019367,1.0,,,,
23,21.0,easy,explanation,Experiment 1 (no preview),4,visible,2.0,a,0.0,a,2.0,,,1.0,2,0.0,2656.398000000743,0.00014272204274790075,0.570994232891322,1.902164153233386,0.0,,,,
23,21.0,easy,explanation,Experiment 1 (no preview),5,visible,0.0,a,2.0,a,0.0,,,2.0,2,1.0,2841.878000002238,0.570994232891322,0.00014272204274790075,1.902164153233386,1.0,,,,
23,21.0,easy,explanation,Experiment 1 (no preview),6,visible,0.0,b,2.0,b,2.0,,,2.0,2,1.0,4459.802000000724,0.9991970212780531,7.136535844161004e-05,2.3964516265216558,1.0,,,,
23,21.0,easy,explanation,Experiment 1 (no preview),7,hidden,0.0,b,,b,2.0,,,2.0,2,1.0,2532.541000000725,0.9993220706905405,0.0002713695637714361,2.3945687632220842,1.0,0.999571673329526,7.140816909454443e-05,2.3967919822290513,1.0
23,21.0,easy,explanation,Experiment 1 (no preview),8,visible,3.0,a,1.0,b,0.0,,,1.0,2,0.0,1314.6820000022417,0.0009945248944342394,0.5979282311202831,1.9330499703254744,0.0,,,,
23,21.0,easy,explanation,Experiment 1 (no preview),9,hidden,2.0,a,,a,2.0,,,1.0,2,0.0,2017.3910000022152,0.0002142703648345738,0.5714924592772682,1.9021921889103488,0.0,7.140816909454443e-05,0.999400479616307,2.3966362788352313,0.0
23,21.0,easy,explanation,Experiment 1 (no preview),10,hidden,3.0,a,,b,0.0,,,1.0,2,0.0,6900.088000002259,0.0019879059381353926,0.5981722792531466,1.923611653701552,0.0,0.0009960159362549803,0.9970119521912354,2.3852642856712984,0.0
23,21.0,easy,explanation,Experiment 1 (no preview),11,hidden,3.0,b,,a,0.0,,,2.0,2,1.0,587.4890000022133,0.5981722792531466,0.0019879059381353926,1.923611653701552,1.0,0.9970119521912354,0.0009960159362549803,2.3852642856712984,1.0
23,21.0,easy,explanation,Experiment 1 (no preview),12,visible,0.0,b,2.0,a,3.0,,,2.0,2,1.0,1287.4210000007297,0.4283598078852605,0.00014268995996806212,1.663181437415924,1.0,,,,
23,21.0,easy,explanation,Experiment 1 (no preview),13,hidden,0.0,a,,a,3.0,,,2.0,2,1.0,2319.5570000022417,0.4282637799556629,0.00026737356627552956,1.6617553886271688,1.0,0.4285204227363611,0.00014277555682467162,1.663484524112541,1.0
23,21.0,easy,explanation,Experiment 1 (no preview),14,hidden,2.0,b,,b,2.0,,,2.0,2,1.0,1390.253000002238,0.5714924592772682,0.0002142703648345738,1.902192188910349,1.0,0.999400479616307,7.140816909454443e-05,2.3966362788352313,1.0
23,21.0,easy,explanation,Experiment 1 (no preview),15,hidden,0.0,b,,a,0.0,,,2.0,2,1.0,1090.190000000759,0.5712971565654885,0.0003424699060264412,1.9006228611010103,1.0,0.5713367609254499,0.00014277555682467162,1.9026739669635262,1.0
23,21.0,easy,explanation,Experiment 1 (no preview),16,visible,3.0,a,1.0,a,0.0,,,1.0,2,0.0,658.2260000007227,0.000993039793019159,0.5988224390547442,1.9343450870577554,0.0,,,,
23,21.0,easy,explanation,Experiment 1 (no preview),17,hidden,0.0,a,,a,0.0,,,2.0,2,1.0,459.5960000007181,0.5712734129444087,0.0002676219490542637,1.9013336940544066,1.0,0.5713367609254499,0.00014277555682467162,1.9026739669635262,1.0
23,21.0,easy,explanation,Experiment 1 (no preview),18,hidden,3.0,a,,b,2.0,,,1.0,2,0.0,372.2880000007572,0.0029845449274233833,0.4003276009338525,1.5806841580160598,0.0,0.0009960159362549803,0.0009960159362549805,0.0,0.0
23,21.0,easy,explanation,Experiment 1 (no preview),19,visible,2.0,a,0.0,b,2.0,,,1.0,2,0.0,480.3080000007758,0.00014268995996806212,0.5711226167122094,1.902355789019367,0.0,,,,
23,21.0,easy,explanation,Experiment 1 (no preview),20,visible,0.0,a,2.0,b,2.0,,,2.0,2,1.0,648.3340000007302,0.9989724097364028,7.138140441347451e-05,2.3962471038199014,1.0,,,,
24,21.0,easy,control,Experiment 1 (no preview),1,hidden,0.0,,,,3.0,ab,aa,aa,ab,0.0,10225.615000023856,0.00041623439681145313,0.4541309496449542,1.7080771386508455,0.0,0.00016655562958027982,0.4544711014176663,1.7111803321796055,0.0
24,21.0,easy,control,Experiment 1 (no preview),2,hidden,3.0,,,,2.0,aa,bb,aa,aa,1.0,5228.32699999999,0.40017787445875763,0.00042820426638582514,1.6055206972808795,1.0,0.0009960159362549805,0.00014277555682467162,0.008484146605073132,1.0
24,21.0,easy,control,Experiment 1 (no preview),3,visible,0.0,b,2.0,,2.0,a,b,b,a,0.0,4055.72799995233,9.087604507451837e-05,0.9995003331112592,2.396532579194846,0.0,,,,
24,21.0,easy,control,Experiment 1 (no preview),4,visible,0.0,a,2.0,,0.0,a,b,a,b,0.0,2357.356000023836,0.5453471464921846,0.00016655562958027982,1.862954026844425,0.0,,,,
24,21.0,easy,control,Experiment 1 (no preview),5,visible,2.0,a,3.0,,3.0,a,b,b,b,1.0,3186.895999976143,0.00019984012789768185,0.999571673329526,2.3955094019535372,1.0,,,,
24,21.0,easy,control,Experiment 1 (no preview),6,visible,3.0,b,3.0,,3.0,a,b,b,b,1.0,1353.3219999999856,0.00019984012789768185,0.999571673329526,2.3955094019535372,1.0,,,,
24,21.0,easy,control,Experiment 1 (no preview),7,hidden,3.0,,,,2.0,ab,ba,ab,ab,1.0,3047.1140000238665,0.40020784700860695,0.000342578294780661,1.6064335917537784,1.0,0.0004990019960079841,0.00019984012789768185,0.0029812039423151916,1.0
24,21.0,easy,control,Experiment 1 (no preview),8,hidden,0.0,,,,0.0,aa,ab,aa,aa,1.0,4929.575000000012,0.5452874812471515,0.0004158785262428385,1.8603755774530384,1.0,0.5453471464921846,0.00016655562958027982,1.862954026844425,1.0
24,21.0,easy,control,Experiment 1 (no preview),9,visible,2.0,a,3.0,,1.0,a,b,a,a,1.0,3247.667999952333,0.5997202238209431,0.00014277555682467162,1.9440836516116948,1.0,,,,
24,21.0,easy,control,Experiment 1 (no preview),10,hidden,2.0,,,,2.0,aa,bb,bb,bb,1.0,1676.295999952301,0.5450294650695513,0.9991675070705446,0.5330123624750794,1.0,0.9992507492507492,0.9995003331112592,0.0002270232984387509,1.0
24,21.0,easy,control,Experiment 1 (no preview),11,visible,3.0,b,3.0,,0.0,a,b,a,b,0.0,1642.4479999523028,0.39988009592326135,0.00014277555682467162,1.607771338227669,0.0,,,,
24,21.0,easy,control,Experiment 1 (no preview),12,visible,0.0,a,2.0,,2.0,a,b,b,a,0.0,1700.969999999972,9.087604507451837e-05,0.9995003331112592,2.396532579194846,0.0,,,,
24,21.0,easy,control,Experiment 1 (no preview),13,visible,2.0,b,2.0,,2.0,a,b,b,b,1.0,1414.229000023799,9.087604507451837e-05,0.9995003331112592,2.396532579194846,1.0,,,,
24,21.0,easy,control,Experiment 1 (no preview),14,visible,0.0,a,2.0,,3.0,a,b,a,a,1.0,1046.1310000000522,0.4544711014176663,0.00016655562958027982,1.7111803321796055,1.0,,,,
24,21.0,easy,control,Experiment 1 (no preview),15,hidden,2.0,,,,1.0,ab,aa,aa,aa,1.0,1531.1569999761414,0.0001428100903135792,0.2726918100208351,1.3141545633960745,1.0,0.00014277555682467162,0.0002497502497502498,0.001067651626791375,1.0
24,21.0,easy,control,Experiment 1 (no preview),16,hidden,3.0,,,,1.0,aa,ba,ba,aa,0.0,1490.042999952333,0.0008170673809587257,0.5994635384940968,1.937006007089263,0.0,0.0009960159362549805,0.5997202238209431,1.9355995050066217,0.0
24,21.0,easy,control,Experiment 1 (no preview),17,visible,0.0,b,2.0,,3.0,a,b,a,b,0.0,2107.4400000238093,0.4544711014176663,0.00016655562958027982,1.7111803321796055,0.0,,,,
24,21.0,easy,control,Experiment 1 (no preview),18,hidden,0.0,,,,2.0,aa,bb,bb,bb,1.0,4926.122000047704,0.00034066974566884366,0.9992150264938332,2.393780497969361,1.0,9.087604507451837e-05,0.9995003331112592,2.396532579194846,1.0
24,21.0,easy,control,Experiment 1 (no preview),19,hidden,3.0,,,,3.0,bb,ba,bb,bb,1.0,2015.329999952344,0.9991436455330089,0.0002648197605675817,2.394471768237129,1.0,0.999571673329526,0.00019984012789768185,2.3955094019535372,1.0
24,21.0,easy,control,Experiment 1 (no preview),20,hidden,2.0,,,,3.0,aa,ab,ab,ab,1.0,2056.2420000476995,0.0002684131993567318,0.45435436204971735,1.7099534028196812,1.0,0.0002497502497502498,0.00014277555682467162,0.0010676516267913248,0.0
25,21.0,easy,explanation,Experiment 1 (no preview),1,visible,0.0,a,2.0,a,0.0,,,2.0,1,0.0,17371.176000143052,0.5381038013005172,0.0001997402744027297,1.8513353714985288,0.0,,,,
25,21.0,easy,explanation,Experiment 1 (no preview),2,visible,3.0,a,1.0,a,0.0,,,1.0,2,0.0,10072.831999952325,0.00019924299604141398,0.5988224390547442,1.9422360548915052,0.0,,,,
25,21.0,easy,explanation,Experiment 1 (no preview),3,visible,0.0,a,2.0,b,2.0,,,2.0,2,1.0,1023.0390000476908,0.998901112288051,7.686099147272065e-05,2.3961274699620185,1.0,,,,
25,21.0,easy,explanation,Experiment 1 (no preview),4,hidden,3.0,b,,a,0.0,,,2.0,2,1.0,6275.161000047694,0.59818233398181,0.00039933450627213456,1.9393247133070277,1.0,0.9970119521912354,0.00019984012789768188,2.3931787624393155,1.0
25,21.0,easy,explanation,Experiment 1 (no preview),5,visible,2.0,a,0.0,b,2.0,,,1.0,2,0.0,578.9090000953584,0.0001997402744027297,0.5381038013005172,1.8513353714985288,0.0,,,,
25,21.0,easy,explanation,Experiment 1 (no preview),6,hidden,2.0,b,,b,2.0,,,2.0,1,0.0,2443.9060000953614,0.5382729138881153,0.0002768325672288539,1.8508312696904405,0.0,0.9995003331112592,7.689941556444171e-05,2.3966722283416746,0.0
25,21.0,easy,explanation,Experiment 1 (no preview),7,hidden,0.0,a,,a,0.0,,,2.0,1,0.0,2492.0490000953723,0.5383364892758242,0.000366107594484251,1.8500409804629847,0.0,0.5383728083666564,0.00019984012789768188,1.8517558586983194,0.0
25,21.0,easy,explanation,Experiment 1 (no preview),8,hidden,3.0,a,,b,0.0,,,1.0,2,0.0,1652.777000047674,0.00039933450627213456,0.59818233398181,1.939324713307028,0.0,0.00019984012789768188,0.9970119521912354,2.3931787624393155,0.0
25,21.0,easy,explanation,Experiment 1 (no preview),9,visible,3.0,a,1.0,b,0.0,,,1.0,1,1.0,3966.637999999977,0.0001995409660295716,0.5979282311202831,1.940952669268456,1.0,,,,
25,21.0,easy,explanation,Experiment 1 (no preview),10,visible,2.0,a,0.0,a,2.0,,,1.0,1,1.0,1884.717000000004,0.0001997402744027297,0.5381038013005172,1.8513353714985288,1.0,,,,
25,21.0,easy,explanation,Experiment 1 (no preview),11,hidden,0.0,b,,a,0.0,,,2.0,1,0.0,604.2800000000279,0.5383364892758242,0.000366107594484251,1.8500409804629847,0.0,0.5383728083666564,0.00019984012789768188,1.8517558586983194,0.0
25,21.0,easy,explanation,Experiment 1 (no preview),12,hidden,0.0,a,,a,3.0,,,2.0,2,1.0,355.33900014305254,0.46124303674513395,0.0003663069028574091,1.7213274699711063,1.0,0.46147339280221467,0.00019984012789768188,1.723397794009622,1.0
25,21.0,easy,explanation,Experiment 1 (no preview),13,hidden,3.0,a,,a,2.0,,,1.0,1,1.0,1224.819000143034,0.00039967500561138803,0.4001793109243392,1.6058076857249377,1.0,0.00019984012789768185,0.0004990019960079841,0.00298120394231516,1.0
25,21.0,easy,explanation,Experiment 1 (no preview),14,visible,3.0,a,0.0,a,2.0,,,1.0,2,0.0,7387.365000047663,0.0001997402744027297,0.399680289079862,1.6068028754890082,0.0,,,,
25,21.0,easy,explanation,Experiment 1 (no preview),15,hidden,2.0,a,,a,2.0,,,1.0,1,1.0,1313.6780000000144,0.0002768325672288539,0.5382729138881153,1.8508312696904405,1.0,7.689941556444171e-05,0.9995003331112592,2.3966722283416746,1.0
25,21.0,easy,explanation,Experiment 1 (no preview),16,visible,0.0,b,2.0,a,0.0,,,2.0,1,0.0,481.31099999998696,0.5381038013005172,0.0001997402744027297,1.8513353714985288,0.0,,,,
25,21.0,easy,explanation,Experiment 1 (no preview),17,visible,0.0,b,2.0,b,2.0,,,2.0,1,0.0,556.3929999999818,0.998901112288051,7.686099147272065e-05,2.3961274699620185,0.0,,,,
25,21.0,easy,explanation,Experiment 1 (no preview),18,hidden,0.0,b,,b,2.0,,,2.0,2,1.0,1114.2620000953902,0.999067701091388,0.00024353257527941818,2.394615003814377,1.0,0.999400479616307,7.689941556444171e-05,2.3965814070600207,1.0
25,21.0,easy,explanation,Experiment 1 (no preview),19,hidden,3.0,a,,b,2.0,,,1.0,2,0.0,705.3059999523102,0.0005992806343604879,0.4002776752837478,1.6040181879514415,0.0,0.00019984012789768188,0.0009960159362549805,0.007914476768016928,0.0
25,21.0,easy,explanation,Experiment 1 (no preview),20,visible,0.0,b,2.0,a,3.0,,,2.0,1,0.0,391.1180000953609,0.46124280982779653,0.0001997402744027297,1.722988031401582,0.0,,,,
26,22.0,hard,prediction,Experiment 1 (no preview),1,visible,0.0,a,3.0,a,,3.0,0.0,0.0,0,1.0,7311.181000047713,0.00016655562958027982,0.49983344437041966,1.7898176671809762,1.0,,,,
26,22.0,hard,prediction,Experiment 1 (no preview),2,hidden,3.0,a,,a,,0.0,3.0,3.0,3,1.0,7636.167000047688,0.00035381317138671875,0.49951171875,1.7874134485773674,1.0,0.0002498626708984375,0.9990234375,2.394511584062472,1.0
26,22.0,hard,prediction,Experiment 1 (no preview),3,visible,1.0,a,0.0,a,,3.0,0.0,3.0,3,1.0,3536.1389998569502,0.9992507492507492,0.0002497502497502498,2.3947195147531968,1.0,,,,
26,22.0,hard,prediction,Experiment 1 (no preview),4,visible,2.0,a,2.0,b,,0.0,3.0,0.0,3,0.0,6952.954999904614,0.42846944603083953,0.00014277555682467162,1.6633880677375703,0.0,,,,
26,22.0,hard,prediction,Experiment 1 (no preview),5,hidden,1.0,b,,a,,3.0,2.0,2.0,2,1.0,5836.557999904617,0.0004515647888183594,0.285888671875,1.3458732441059202,1.0,0.0001665353775024414,0.499755859375,1.789688516768624,1.0
26,22.0,hard,prediction,Experiment 1 (no preview),6,hidden,0.0,a,,a,,1.0,0.0,0.0,1,0.0,4186.416999856941,0.0002913475036621094,0.49951171875,1.7880360967342686,0.0,0.0001665353775024414,0.499755859375,1.789688516768624,0.0
26,22.0,hard,prediction,Experiment 1 (no preview),7,hidden,1.0,a,,a,,3.0,2.0,3.0,2,0.0,3186.353999904648,0.499267578125,0.0011224746704101562,1.7793758037162435,0.0,0.9990234375,0.0002498626708984375,2.394511584062472,0.0
26,22.0,hard,prediction,Experiment 1 (no preview),8,visible,0.0,a,3.0,b,,2.0,1.0,2.0,1,0.0,3428.155999952345,0.571245002855511,0.00014277555682467162,1.90253727797734,0.0,,,,
