participant_id,fsm_number,fsm_type,test_condition,learning_condition,trial_number,trial_type,state_1,response_1,state_2,response_2,state_3,option_1,option_2,correctResponse,response,response_correct,response_time
122,21.0,easy,explanation,Experiment 2 (test preview),1,visible,3.0,a,1.0,b,0.0,,,1.0,1,1.0,4130.112000000081
122,21.0,easy,explanation,Experiment 2 (test preview),2,hidden,3.0,a,,b,0.0,,,1.0,1,1.0,1610.2220000000088
122,21.0,easy,explanation,Experiment 2 (test preview),3,visible,3.0,a,1.0,a,0.0,,,1.0,1,1.0,1608.5050000000049
122,21.0,easy,explanation,Experiment 2 (test preview),4,visible,3.0,a,0.0,a,2.0,,,1.0,2,0.0,1181.5
122,21.0,easy,explanation,Experiment 2 (test preview),5,hidden,0.0,b,,b,2.0,,,2.0,2,1.0,868.917000000074
122,21.0,easy,explanation,Experiment 2 (test preview),6,hidden,2.0,a,,a,2.0,,,1.0,2,0.0,1760.8289999999688
122,21.0,easy,explanation,Experiment 2 (test preview),7,hidden,3.0,a,,b,2.0,,,1.0,2,0.0,590.4250000001048
122,21.0,easy,explanation,Experiment 2 (test preview),8,hidden,0.0,a,,a,3.0,,,2.0,1,0.0,386.6509999999544
122,21.0,easy,explanation,Experiment 2 (test preview),9,visible,0.0,b,2.0,a,0.0,,,2.0,2,1.0,579.1030000001192
122,21.0,easy,explanation,Experiment 2 (test preview),10,visible,2.0,a,0.0,a,2.0,,,1.0,2,0.0,2010.5270000001185
122,21.0,easy,explanation,Experiment 2 (test preview),11,visible,2.0,a,0.0,b,2.0,,,1.0,2,0.0,451.1040000000503
122,21.0,easy,explanation,Experiment 2 (test preview),12,visible,0.0,b,2.0,b,2.0,,,2.0,2,1.0,589.7310000000289
122,21.0,easy,explanation,Experiment 2 (test preview),13,hidden,0.0,b,,a,0.0,,,2.0,2,1.0,366.5640000000713
122,21.0,easy,explanation,Experiment 2 (test preview),14,hidden,2.0,b,,b,2.0,,,2.0,2,1.0,340.9709999999613
122,21.0,easy,explanation,Experiment 2 (test preview),15,visible,0.0,a,2.0,a,0.0,,,2.0,2,1.0,618.0979999999399
122,21.0,easy,explanation,Experiment 2 (test preview),16,hidden,3.0,a,,a,2.0,,,1.0,2,0.0,319.1250000001164
122,21.0,easy,explanation,Experiment 2 (test preview),17,visible,0.0,b,2.0,a,3.0,,,2.0,2,1.0,348.261000000115
122,21.0,easy,explanation,Experiment 2 (test preview),18,visible,0.0,a,2.0,b,2.0,,,2.0,2,1.0,306.7620000001625
122,21.0,easy,explanation,Experiment 2 (test preview),19,hidden,0.0,a,,a,0.0,,,2.0,1,0.0,1091.7029999999795
122,21.0,easy,explanation,Experiment 2 (test preview),20,hidden,3.0,b,,a,0.0,,,2.0,2,1.0,388.394999999844
123,21.0,easy,explanation,Experiment 2 (test preview),1,hidden,3.0,a,,b,2.0,,,1.0,2,0.0,15761.19099995232
123,21.0,easy,explanation,Experiment 2 (test preview),2,visible,0.0,b,2.0,a,3.0,,,2.0,2,1.0,3609.966999928467
123,21.0,easy,explanation,Experiment 2 (test preview),3,visible,3.0,a,1.0,a,0.0,,,1.0,1,1.0,8768.642999999982
123,21.0,easy,explanation,Experiment 2 (test preview),4,hidden,0.0,b,,b,2.0,,,2.0,2,1.0,3012.063999976148
123,21.0,easy,explanation,Experiment 2 (test preview),5,visible,2.0,a,0.0,a,2.0,,,1.0,1,1.0,2777.462999928452
123,21.0,easy,explanation,Experiment 2 (test preview),6,hidden,0.0,a,,a,3.0,,,2.0,1,0.0,6093.11799992848
123,21.0,easy,explanation,Experiment 2 (test preview),7,visible,2.0,a,0.0,b,2.0,,,1.0,2,0.0,1849.5259999523405
123,21.0,easy,explanation,Experiment 2 (test preview),8,hidden,0.0,a,,a,0.0,,,2.0,2,1.0,3230.38000002387
123,21.0,easy,explanation,Experiment 2 (test preview),9,hidden,2.0,b,,b,2.0,,,2.0,2,1.0,348.4349999523256
123,21.0,easy,explanation,Experiment 2 (test preview),10,visible,3.0,a,0.0,a,2.0,,,1.0,1,1.0,13928.003999928478
123,21.0,easy,explanation,Experiment 2 (test preview),11,visible,0.0,a,2.0,b,2.0,,,2.0,2,1.0,424.9029999999912
123,21.0,easy,explanation,Experiment 2 (test preview),12,hidden,3.0,b,,a,0.0,,,2.0,2,1.0,10025.214000023843
123,21.0,easy,explanation,Experiment 2 (test preview),13,visible,0.0,b,2.0,a,0.0,,,2.0,2,1.0,3020.521000023815
123,21.0,easy,explanation,Experiment 2 (test preview),14,hidden,0.0,b,,a,0.0,,,2.0,1,0.0,4649.209000023839
123,21.0,easy,explanation,Experiment 2 (test preview),15,visible,0.0,b,2.0,b,2.0,,,2.0,2,1.0,2781.070999976131
123,21.0,easy,explanation,Experiment 2 (test preview),16,visible,3.0,a,1.0,b,0.0,,,1.0,1,1.0,3597.1290000238223
123,21.0,easy,explanation,Experiment 2 (test preview),17,hidden,2.0,a,,a,2.0,,,1.0,2,0.0,15661.115000023856
123,21.0,easy,explanation,Experiment 2 (test preview),18,visible,0.0,a,2.0,a,0.0,,,2.0,1,0.0,3224.912999976193
123,21.0,easy,explanation,Experiment 2 (test preview),19,hidden,3.0,a,,a,2.0,,,1.0,2,0.0,3538.9999999522697
123,21.0,easy,explanation,Experiment 2 (test preview),20,hidden,3.0,a,,b,0.0,,,1.0,1,1.0,3659.26600002381
124,21.0,easy,explanation,Experiment 2 (test preview),1,hidden,0.0,b,,a,0.0,,,2.0,2,1.0,1299.371999999974
124,21.0,easy,explanation,Experiment 2 (test preview),2,visible,3.0,a,1.0,b,0.0,,,1.0,2,0.0,765.6280000000261
124,21.0,easy,explanation,Experiment 2 (test preview),3,hidden,0.0,a,,a,0.0,,,2.0,1,0.0,526.9889999642619
124,21.0,easy,explanation,Experiment 2 (test preview),4,visible,0.0,b,2.0,a,0.0,,,2.0,2,1.0,1807.4489999642249
124,21.0,easy,explanation,Experiment 2 (test preview),5,visible,3.0,a,0.0,a,2.0,,,1.0,1,1.0,1411.9539999642293
124,21.0,easy,explanation,Experiment 2 (test preview),6,visible,0.0,a,2.0,a,0.0,,,2.0,1,0.0,1747.0109999999986
124,21.0,easy,explanation,Experiment 2 (test preview),7,visible,0.0,b,2.0,b,2.0,,,2.0,2,1.0,482.8359999761451
124,21.0,easy,explanation,Experiment 2 (test preview),8,hidden,2.0,b,,b,2.0,,,2.0,2,1.0,419.07499996421393
124,21.0,easy,explanation,Experiment 2 (test preview),9,hidden,3.0,a,,a,2.0,,,1.0,1,1.0,367.7269999642158
124,21.0,easy,explanation,Experiment 2 (test preview),10,visible,3.0,a,1.0,a,0.0,,,1.0,1,1.0,482.7289999999921
124,21.0,easy,explanation,Experiment 2 (test preview),11,hidden,3.0,a,,b,2.0,,,1.0,1,1.0,3943.02200001193
124,21.0,easy,explanation,Experiment 2 (test preview),12,hidden,0.0,b,,b,2.0,,,2.0,2,1.0,373.5979999999981
124,21.0,easy,explanation,Experiment 2 (test preview),13,hidden,3.0,b,,a,0.0,,,2.0,2,1.0,1894.6939999761528
124,21.0,easy,explanation,Experiment 2 (test preview),14,visible,2.0,a,0.0,b,2.0,,,1.0,1,1.0,3869.251999964239
124,21.0,easy,explanation,Experiment 2 (test preview),15,visible,2.0,a,0.0,a,2.0,,,1.0,1,1.0,492.9749999999767
124,21.0,easy,explanation,Experiment 2 (test preview),16,visible,0.0,b,2.0,a,3.0,,,2.0,1,0.0,706.7999999999884
124,21.0,easy,explanation,Experiment 2 (test preview),17,hidden,0.0,a,,a,3.0,,,2.0,2,1.0,1916.7159999642167
124,21.0,easy,explanation,Experiment 2 (test preview),18,hidden,3.0,a,,b,0.0,,,1.0,2,0.0,3556.534999964235
124,21.0,easy,explanation,Experiment 2 (test preview),19,visible,0.0,a,2.0,b,2.0,,,2.0,1,0.0,1485.8209999761311
124,21.0,easy,explanation,Experiment 2 (test preview),20,hidden,2.0,a,,a,2.0,,,1.0,1,1.0,2095.919999999984
131,21.0,easy,explanation,Experiment 2 (test preview),1,hidden,0.0,a,,a,0.0,,,2.0,2,1.0,1465.9500000119442
131,21.0,easy,explanation,Experiment 2 (test preview),2,visible,3.0,a,0.0,a,2.0,,,1.0,1,1.0,2470.234000047669
131,21.0,easy,explanation,Experiment 2 (test preview),3,visible,0.0,b,2.0,a,3.0,,,2.0,1,0.0,984.9040000477108
131,21.0,easy,explanation,Experiment 2 (test preview),4,hidden,0.0,b,,b,2.0,,,2.0,1,0.0,3176.1890000119456
131,21.0,easy,explanation,Experiment 2 (test preview),5,hidden,2.0,b,,b,2.0,,,2.0,2,1.0,1350.0730000119074
131,21.0,easy,explanation,Experiment 2 (test preview),6,visible,2.0,a,0.0,a,2.0,,,1.0,2,0.0,890.1950000119396
131,21.0,easy,explanation,Experiment 2 (test preview),7,visible,0.0,a,2.0,b,2.0,,,2.0,2,1.0,2175.148000023852
131,21.0,easy,explanation,Experiment 2 (test preview),8,visible,3.0,a,1.0,a,0.0,,,1.0,1,1.0,2875.467000000004
131,21.0,easy,explanation,Experiment 2 (test preview),9,visible,0.0,b,2.0,a,0.0,,,2.0,2,1.0,3106.440000011935
131,21.0,easy,explanation,Experiment 2 (test preview),10,hidden,3.0,a,,b,2.0,,,1.0,1,1.0,1382.6210000119172
131,21.0,easy,explanation,Experiment 2 (test preview),11,visible,3.0,a,1.0,b,0.0,,,1.0,2,0.0,1668.542000047688
131,21.0,easy,explanation,Experiment 2 (test preview),12,hidden,3.0,b,,a,0.0,,,2.0,1,0.0,1125.731000047701
131,21.0,easy,explanation,Experiment 2 (test preview),13,hidden,0.0,a,,a,3.0,,,2.0,2,1.0,2077.951000011933
131,21.0,easy,explanation,Experiment 2 (test preview),14,visible,0.0,a,2.0,a,0.0,,,2.0,2,1.0,1534.2950000357814
131,21.0,easy,explanation,Experiment 2 (test preview),15,hidden,0.0,b,,a,0.0,,,2.0,2,1.0,2496.370000035735
131,21.0,easy,explanation,Experiment 2 (test preview),16,hidden,2.0,a,,a,2.0,,,1.0,1,1.0,2302.722000023816
131,21.0,easy,explanation,Experiment 2 (test preview),17,hidden,3.0,a,,a,2.0,,,1.0,1,1.0,5702.681000011915
131,21.0,easy,explanation,Experiment 2 (test preview),18,visible,0.0,b,2.0,b,2.0,,,2.0,1,0.0,1108.3440000476548
131,21.0,easy,explanation,Experiment 2 (test preview),19,hidden,3.0,a,,b,0.0,,,1.0,2,0.0,1924.5480000238167
131,21.0,easy,explanation,Experiment 2 (test preview),20,visible,2.0,a,0.0,b,2.0,,,1.0,2,0.0,1669.4920000476995
125,21.0,easy,explanation,Experiment 2 (test preview),1,hidden,0.0,b,,a,0.0,,,2.0,2,1.0,12104.0
125,21.0,easy,explanation,Experiment 2 (test preview),2,visible,2.0,a,0.0,a,2.0,,,1.0,2,0.0,8421.0
125,21.0,easy,explanation,Experiment 2 (test preview),3,hidden,0.0,a,,a,0.0,,,2.0,1,0.0,637.0
125,21.0,easy,explanation,Experiment 2 (test preview),4,hidden,0.0,b,,b,2.0,,,2.0,1,0.0,9521.0
125,21.0,easy,explanation,Experiment 2 (test preview),5,visible,2.0,a,0.0,b,2.0,,,1.0,1,1.0,1104.0
125,21.0,easy,explanation,Experiment 2 (test preview),6,visible,3.0,a,1.0,a,0.0,,,1.0,2,0.0,1088.0
125,21.0,easy,explanation,Experiment 2 (test preview),7,visible,0.0,a,2.0,b,2.0,,,2.0,2,1.0,2220.0
125,21.0,easy,explanation,Experiment 2 (test preview),8,hidden,3.0,b,,a,0.0,,,2.0,1,0.0,5154.0
125,21.0,easy,explanation,Experiment 2 (test preview),9,hidden,2.0,a,,a,2.0,,,1.0,1,1.0,5171.0
125,21.0,easy,explanation,Experiment 2 (test preview),10,visible,0.0,a,2.0,a,0.0,,,2.0,2,1.0,720.0
125,21.0,easy,explanation,Experiment 2 (test preview),11,hidden,3.0,a,,b,2.0,,,1.0,2,0.0,3088.0
125,21.0,easy,explanation,Experiment 2 (test preview),12,hidden,2.0,b,,b,2.0,,,2.0,1,0.0,471.0
125,21.0,easy,explanation,Experiment 2 (test preview),13,visible,0.0,b,2.0,b,2.0,,,2.0,2,1.0,637.0
125,21.0,easy,explanation,Experiment 2 (test preview),14,visible,0.0,b,2.0,a,0.0,,,2.0,2,1.0,821.0
125,21.0,easy,explanation,Experiment 2 (test preview),15,visible,3.0,a,0.0,a,2.0,,,1.0,1,1.0,1421.0
125,21.0,easy,explanation,Experiment 2 (test preview),16,hidden,3.0,a,,b,0.0,,,1.0,1,1.0,3721.0
125,21.0,easy,explanation,Experiment 2 (test preview),17,hidden,3.0,a,,a,2.0,,,1.0,2,0.0,1421.0
125,21.0,easy,explanation,Experiment 2 (test preview),18,visible,0.0,b,2.0,a,3.0,,,2.0,2,1.0,22205.0
125,21.0,easy,explanation,Experiment 2 (test preview),19,visible,3.0,a,1.0,b,0.0,,,1.0,2,0.0,671.0
125,21.0,easy,explanation,Experiment 2 (test preview),20,hidden,0.0,a,,a,3.0,,,2.0,1,0.0,655.0
130,21.0,easy,explanation,Experiment 2 (test preview),1,hidden,3.0,b,,a,0.0,,,2.0,2,1.0,2675.539999986533
130,21.0,easy,explanation,Experiment 2 (test preview),2,visible,0.0,a,2.0,a,0.0,,,2.0,1,0.0,1108.8560000094585
130,21.0,easy,explanation,Experiment 2 (test preview),3,visible,0.0,a,2.0,b,2.0,,,2.0,1,0.0,357.40699999639764
130,21.0,easy,explanation,Experiment 2 (test preview),4,visible,3.0,a,1.0,b,0.0,,,1.0,1,1.0,440.5999999718042
130,21.0,easy,explanation,Experiment 2 (test preview),5,visible,3.0,a,1.0,a,0.0,,,1.0,2,0.0,315.61999997799285
130,21.0,easy,explanation,Experiment 2 (test preview),6,hidden,3.0,a,,b,2.0,,,1.0,2,0.0,350.21600000420585
130,21.0,easy,explanation,Experiment 2 (test preview),7,visible,2.0,a,0.0,a,2.0,,,1.0,1,1.0,353.35799997416325
130,21.0,easy,explanation,Experiment 2 (test preview),8,visible,3.0,a,0.0,a,2.0,,,1.0,1,1.0,518.8509999932721
130,21.0,easy,explanation,Experiment 2 (test preview),9,visible,2.0,a,0.0,b,2.0,,,1.0,2,0.0,165.3899999880232
130,21.0,easy,explanation,Experiment 2 (test preview),10,hidden,0.0,b,,b,2.0,,,2.0,1,0.0,1025.1759999609783
130,21.0,easy,explanation,Experiment 2 (test preview),11,visible,0.0,b,2.0,a,3.0,,,2.0,2,1.0,317.6999999807449
130,21.0,easy,explanation,Experiment 2 (test preview),12,hidden,0.0,b,,a,0.0,,,2.0,2,1.0,340.3909999751486
130,21.0,easy,explanation,Experiment 2 (test preview),13,visible,0.0,b,2.0,b,2.0,,,2.0,2,1.0,393.9610000042012
130,21.0,easy,explanation,Experiment 2 (test preview),14,hidden,2.0,a,,a,2.0,,,1.0,1,1.0,414.022000005818
130,21.0,easy,explanation,Experiment 2 (test preview),15,hidden,3.0,a,,b,0.0,,,1.0,1,1.0,327.4970000012545
130,21.0,easy,explanation,Experiment 2 (test preview),16,hidden,0.0,a,,a,3.0,,,2.0,2,1.0,323.20100000407547
130,21.0,easy,explanation,Experiment 2 (test preview),17,hidden,0.0,a,,a,0.0,,,2.0,1,0.0,126.04599999729544
130,21.0,easy,explanation,Experiment 2 (test preview),18,visible,0.0,b,2.0,a,0.0,,,2.0,1,0.0,169.96099997079
130,21.0,easy,explanation,Experiment 2 (test preview),19,hidden,3.0,a,,a,2.0,,,1.0,2,0.0,42.58299996703863
130,21.0,easy,explanation,Experiment 2 (test preview),20,hidden,2.0,b,,b,2.0,,,2.0,2,1.0,465.29999998549465
126,21.0,easy,explanation,Experiment 2 (test preview),1,visible,0.0,b,2.0,b,2.0,,,2.0,1,0.0,2722.087999713898
126,21.0,easy,explanation,Experiment 2 (test preview),2,visible,0.0,a,2.0,b,2.0,,,2.0,1,0.0,5456.438000095368
126,21.0,easy,explanation,Experiment 2 (test preview),3,visible,0.0,a,2.0,a,0.0,,,2.0,1,0.0,556.1560000953614
126,21.0,easy,explanation,Experiment 2 (test preview),4,visible,0.0,b,2.0,a,0.0,,,2.0,2,1.0,2688.9860000953777
126,21.0,easy,explanation,Experiment 2 (test preview),5,hidden,3.0,b,,a,0.0,,,2.0,1,0.0,3805.34199990466
126,21.0,easy,explanation,Experiment 2 (test preview),6,visible,3.0,a,1.0,a,0.0,,,1.0,1,1.0,505.8680000000168
126,21.0,easy,explanation,Experiment 2 (test preview),7,hidden,2.0,a,,a,2.0,,,1.0,1,1.0,705.3649998092442
126,21.0,easy,explanation,Experiment 2 (test preview),8,hidden,0.0,a,,a,3.0,,,2.0,1,0.0,1472.9669997139135
126,21.0,easy,explanation,Experiment 2 (test preview),9,hidden,0.0,b,,a,0.0,,,2.0,2,1.0,4272.465999713924
126,21.0,easy,explanation,Experiment 2 (test preview),10,visible,0.0,b,2.0,a,3.0,,,2.0,1,0.0,556.2779997139005
126,21.0,easy,explanation,Experiment 2 (test preview),11,hidden,3.0,a,,b,0.0,,,1.0,1,1.0,522.5199999046163
126,21.0,easy,explanation,Experiment 2 (test preview),12,hidden,0.0,a,,a,0.0,,,2.0,1,0.0,372.2480000000214
126,21.0,easy,explanation,Experiment 2 (test preview),13,visible,3.0,a,0.0,a,2.0,,,1.0,1,1.0,439.4700000953744
126,21.0,easy,explanation,Experiment 2 (test preview),14,visible,2.0,a,0.0,a,2.0,,,1.0,1,1.0,588.829000000027
126,21.0,easy,explanation,Experiment 2 (test preview),15,visible,3.0,a,1.0,b,0.0,,,1.0,1,1.0,389.3269999999902
126,21.0,easy,explanation,Experiment 2 (test preview),16,hidden,3.0,a,,b,2.0,,,1.0,1,1.0,556.516999809246
126,21.0,easy,explanation,Experiment 2 (test preview),17,hidden,0.0,b,,b,2.0,,,2.0,1,0.0,389.81300000002375
126,21.0,easy,explanation,Experiment 2 (test preview),18,hidden,2.0,b,,b,2.0,,,2.0,2,1.0,2556.668999809248
126,21.0,easy,explanation,Experiment 2 (test preview),19,hidden,3.0,a,,a,2.0,,,1.0,1,1.0,455.4399998092558
126,21.0,easy,explanation,Experiment 2 (test preview),20,visible,2.0,a,0.0,b,2.0,,,1.0,1,1.0,456.0319997139159
127,21.0,easy,explanation,Experiment 2 (test preview),1,hidden,2.0,a,,a,2.0,,,1.0,1,1.0,1167.7029999761726
127,21.0,easy,explanation,Experiment 2 (test preview),2,visible,0.0,a,2.0,b,2.0,,,2.0,1,0.0,2246.283999952313
127,21.0,easy,explanation,Experiment 2 (test preview),3,hidden,0.0,b,,a,0.0,,,2.0,1,0.0,3976.052999952313
127,21.0,easy,explanation,Experiment 2 (test preview),4,visible,2.0,a,0.0,a,2.0,,,1.0,1,1.0,371.1749999761523
127,21.0,easy,explanation,Experiment 2 (test preview),5,hidden,3.0,a,,b,2.0,,,1.0,1,1.0,547.86299995234
127,21.0,easy,explanation,Experiment 2 (test preview),6,visible,0.0,b,2.0,a,3.0,,,2.0,1,0.0,1058.8279999761726
127,21.0,easy,explanation,Experiment 2 (test preview),7,hidden,0.0,a,,a,0.0,,,2.0,1,0.0,747.3929999523098
127,21.0,easy,explanation,Experiment 2 (test preview),8,visible,3.0,a,0.0,a,2.0,,,1.0,1,1.0,630.167999904661
127,21.0,easy,explanation,Experiment 2 (test preview),9,hidden,3.0,b,,a,0.0,,,2.0,1,0.0,701.6159999523079
127,21.0,easy,explanation,Experiment 2 (test preview),10,hidden,0.0,a,,a,3.0,,,2.0,1,0.0,1017.606999976153
127,21.0,easy,explanation,Experiment 2 (test preview),11,visible,2.0,a,0.0,b,2.0,,,1.0,1,1.0,991.5899999522952
127,21.0,easy,explanation,Experiment 2 (test preview),12,visible,3.0,a,1.0,b,0.0,,,1.0,1,1.0,721.2179999999935
127,21.0,easy,explanation,Experiment 2 (test preview),13,hidden,3.0,a,,a,2.0,,,1.0,1,1.0,526.8699999523233
127,21.0,easy,explanation,Experiment 2 (test preview),14,hidden,2.0,b,,b,2.0,,,2.0,1,0.0,918.5199999522883
127,21.0,easy,explanation,Experiment 2 (test preview),15,visible,0.0,b,2.0,a,0.0,,,2.0,1,0.0,2257.569999952335
127,21.0,easy,explanation,Experiment 2 (test preview),16,hidden,3.0,a,,b,0.0,,,1.0,1,1.0,937.1989999761572
127,21.0,easy,explanation,Experiment 2 (test preview),17,visible,3.0,a,1.0,a,0.0,,,1.0,1,1.0,507.3529999523307
127,21.0,easy,explanation,Experiment 2 (test preview),18,visible,0.0,a,2.0,a,0.0,,,2.0,1,0.0,666.0239999761689
127,21.0,easy,explanation,Experiment 2 (test preview),19,visible,0.0,b,2.0,b,2.0,,,2.0,1,0.0,473.6609999761568
127,21.0,easy,explanation,Experiment 2 (test preview),20,hidden,0.0,b,,b,2.0,,,2.0,1,0.0,1072.4709999522893
129,21.0,easy,explanation,Experiment 2 (test preview),1,hidden,0.0,a,,a,3.0,,,2.0,1,0.0,6262.960000000021
129,21.0,easy,explanation,Experiment 2 (test preview),2,hidden,0.0,a,,a,0.0,,,2.0,1,0.0,8791.840000000026
129,21.0,easy,explanation,Experiment 2 (test preview),3,hidden,0.0,b,,a,0.0,,,2.0,2,1.0,11006.099999999977
129,21.0,easy,explanation,Experiment 2 (test preview),4,visible,3.0,a,1.0,b,0.0,,,1.0,1,1.0,7956.919999999984
129,21.0,easy,explanation,Experiment 2 (test preview),5,hidden,3.0,a,,b,0.0,,,1.0,1,1.0,8566.520000000019
129,21.0,easy,explanation,Experiment 2 (test preview),6,hidden,3.0,a,,a,2.0,,,1.0,2,0.0,4496.739999999991
129,21.0,easy,explanation,Experiment 2 (test preview),7,hidden,3.0,a,,b,2.0,,,1.0,1,1.0,3901.260000000009
129,21.0,easy,explanation,Experiment 2 (test preview),8,visible,0.0,b,2.0,a,3.0,,,2.0,2,1.0,2669.200000000012
129,21.0,easy,explanation,Experiment 2 (test preview),9,hidden,2.0,b,,b,2.0,,,2.0,2,1.0,2579.179999999993
129,21.0,easy,explanation,Experiment 2 (test preview),10,visible,2.0,a,0.0,b,2.0,,,1.0,1,1.0,3836.4400000000014
129,21.0,easy,explanation,Experiment 2 (test preview),11,visible,3.0,a,1.0,a,0.0,,,1.0,2,0.0,5829.700000000012
129,21.0,easy,explanation,Experiment 2 (test preview),12,hidden,2.0,a,,a,2.0,,,1.0,1,1.0,1573.0200000000186
129,21.0,easy,explanation,Experiment 2 (test preview),13,visible,0.0,a,2.0,b,2.0,,,2.0,1,0.0,1222.9000000000233
129,21.0,easy,explanation,Experiment 2 (test preview),14,visible,0.0,b,2.0,a,0.0,,,2.0,2,1.0,1222.8400000000256
129,21.0,easy,explanation,Experiment 2 (test preview),15,visible,2.0,a,0.0,a,2.0,,,1.0,2,0.0,1048.179999999993
129,21.0,easy,explanation,Experiment 2 (test preview),16,hidden,3.0,b,,a,0.0,,,2.0,2,1.0,1121.039999999979
129,21.0,easy,explanation,Experiment 2 (test preview),17,visible,0.0,a,2.0,a,0.0,,,2.0,2,1.0,892.320000000007
129,21.0,easy,explanation,Experiment 2 (test preview),18,visible,3.0,a,0.0,a,2.0,,,1.0,1,1.0,2769.9799999999814
129,21.0,easy,explanation,Experiment 2 (test preview),19,hidden,0.0,b,,b,2.0,,,2.0,2,1.0,1798.859999999986
129,21.0,easy,explanation,Experiment 2 (test preview),20,visible,0.0,b,2.0,b,2.0,,,2.0,1,0.0,1793.4799999999814
128,21.0,easy,explanation,Experiment 2 (test preview),1,hidden,3.0,a,,b,2.0,,,1.0,2,0.0,4277.321000011929
128,21.0,easy,explanation,Experiment 2 (test preview),2,hidden,3.0,a,,a,2.0,,,1.0,1,1.0,3089.8570000118925
128,21.0,easy,explanation,Experiment 2 (test preview),3,visible,2.0,a,0.0,a,2.0,,,1.0,1,1.0,6965.792000047688
128,21.0,easy,explanation,Experiment 2 (test preview),4,visible,0.0,a,2.0,a,0.0,,,2.0,2,1.0,4763.48200004769
128,21.0,easy,explanation,Experiment 2 (test preview),5,visible,0.0,b,2.0,b,2.0,,,2.0,2,1.0,5955.529000011913
128,21.0,easy,explanation,Experiment 2 (test preview),6,hidden,2.0,b,,b,2.0,,,2.0,1,0.0,2598.5770000476623
128,21.0,easy,explanation,Experiment 2 (test preview),7,visible,3.0,a,1.0,b,0.0,,,1.0,2,0.0,4588.627000023844
128,21.0,easy,explanation,Experiment 2 (test preview),8,hidden,0.0,b,,b,2.0,,,2.0,1,0.0,6524.4390000357525
128,21.0,easy,explanation,Experiment 2 (test preview),9,visible,2.0,a,0.0,b,2.0,,,1.0,1,1.0,4635.119000047678
128,21.0,easy,explanation,Experiment 2 (test preview),10,hidden,3.0,a,,b,0.0,,,1.0,2,0.0,4176.604000023857
128,21.0,easy,explanation,Experiment 2 (test preview),11,hidden,2.0,a,,a,2.0,,,1.0,1,1.0,1108.433000023826
128,21.0,easy,explanation,Experiment 2 (test preview),12,visible,0.0,b,2.0,a,3.0,,,2.0,2,1.0,2263.131000035792
128,21.0,easy,explanation,Experiment 2 (test preview),13,hidden,0.0,b,,a,0.0,,,2.0,2,1.0,1423.9260000238428
128,21.0,easy,explanation,Experiment 2 (test preview),14,visible,3.0,a,0.0,a,2.0,,,1.0,1,1.0,5132.66300003574
128,21.0,easy,explanation,Experiment 2 (test preview),15,hidden,0.0,a,,a,0.0,,,2.0,1,0.0,895.1230000476935
128,21.0,easy,explanation,Experiment 2 (test preview),16,visible,0.0,a,2.0,b,2.0,,,2.0,2,1.0,604.4870000476949
128,21.0,easy,explanation,Experiment 2 (test preview),17,visible,3.0,a,1.0,a,0.0,,,1.0,2,0.0,486.50700003578095
128,21.0,easy,explanation,Experiment 2 (test preview),18,hidden,3.0,b,,a,0.0,,,2.0,2,1.0,769.7730000476586
128,21.0,easy,explanation,Experiment 2 (test preview),19,visible,0.0,b,2.0,a,0.0,,,2.0,1,0.0,644.0530000357539
128,21.0,easy,explanation,Experiment 2 (test preview),20,hidden,0.0,a,,a,3.0,,,2.0,2,1.0,843.9729999999981
132,21.0,easy,explanation,Experiment 2 (test preview),1,visible,0.0,a,2.0,a,0.0,,,2.0,2,1.0,2783.383999982121
132,21.0,easy,explanation,Experiment 2 (test preview),2,hidden,0.0,b,,a,0.0,,,2.0,1,0.0,3999.550999994041
132,21.0,easy,explanation,Experiment 2 (test preview),3,hidden,0.0,b,,b,2.0,,,2.0,2,1.0,1870.360999994038
132,21.0,easy,explanation,Experiment 2 (test preview),4,visible,0.0,b,2.0,a,3.0,,,2.0,2,1.0,1666.4649999940302
132,21.0,easy,explanation,Experiment 2 (test preview),5,visible,0.0,b,2.0,b,2.0,,,2.0,1,0.0,922.1429999940448
132,21.0,easy,explanation,Experiment 2 (test preview),6,visible,0.0,b,2.0,a,0.0,,,2.0,2,1.0,1289.5149999880814
132,21.0,easy,explanation,Experiment 2 (test preview),7,visible,2.0,a,0.0,a,2.0,,,1.0,2,0.0,4559.125999994052
132,21.0,easy,explanation,Experiment 2 (test preview),8,visible,3.0,a,1.0,b,0.0,,,1.0,2,0.0,2991.895999976143
132,21.0,easy,explanation,Experiment 2 (test preview),9,hidden,3.0,a,,a,2.0,,,1.0,2,0.0,2717.897999988054
132,21.0,easy,explanation,Experiment 2 (test preview),10,hidden,2.0,b,,b,2.0,,,2.0,1,0.0,811.4929999940214
132,21.0,easy,explanation,Experiment 2 (test preview),11,hidden,2.0,a,,a,2.0,,,1.0,1,1.0,5173.67299998214
132,21.0,easy,explanation,Experiment 2 (test preview),12,visible,2.0,a,0.0,b,2.0,,,1.0,2,0.0,1734.065999988059
132,21.0,easy,explanation,Experiment 2 (test preview),13,visible,3.0,a,0.0,a,2.0,,,1.0,1,1.0,2326.569999982137
132,21.0,easy,explanation,Experiment 2 (test preview),14,hidden,3.0,b,,a,0.0,,,2.0,2,1.0,939.9789999821224
132,21.0,easy,explanation,Experiment 2 (test preview),15,hidden,3.0,a,,b,0.0,,,1.0,2,0.0,1113.2600000000093
132,21.0,easy,explanation,Experiment 2 (test preview),16,visible,0.0,a,2.0,b,2.0,,,2.0,2,1.0,7550.576000000001
132,21.0,easy,explanation,Experiment 2 (test preview),17,hidden,3.0,a,,b,2.0,,,1.0,1,1.0,363.1720000000205
132,21.0,easy,explanation,Experiment 2 (test preview),18,hidden,0.0,a,,a,0.0,,,2.0,1,0.0,1331.296999994025
132,21.0,easy,explanation,Experiment 2 (test preview),19,visible,3.0,a,1.0,a,0.0,,,1.0,2,0.0,1450.0169999821228
132,21.0,easy,explanation,Experiment 2 (test preview),20,hidden,0.0,a,,a,3.0,,,2.0,2,1.0,1522.1879999761586
133,21.0,easy,explanation,Experiment 2 (test preview),1,visible,2.0,a,0.0,b,2.0,,,1.0,1,1.0,1885.2399999996412
133,21.0,easy,explanation,Experiment 2 (test preview),2,visible,0.0,a,2.0,a,0.0,,,2.0,2,1.0,771.0439999998198
133,21.0,easy,explanation,Experiment 2 (test preview),3,hidden,0.0,a,,a,0.0,,,2.0,1,0.0,667.0559999998077
133,21.0,easy,explanation,Experiment 2 (test preview),4,hidden,3.0,a,,b,2.0,,,1.0,1,1.0,691.4899999994377
133,21.0,easy,explanation,Experiment 2 (test preview),5,hidden,0.0,b,,a,0.0,,,2.0,2,1.0,486.1590000000142
133,21.0,easy,explanation,Experiment 2 (test preview),6,visible,3.0,a,0.0,a,2.0,,,1.0,1,1.0,525.4189999996161
133,21.0,easy,explanation,Experiment 2 (test preview),7,hidden,3.0,b,,a,0.0,,,2.0,2,1.0,502.4469999999856
133,21.0,easy,explanation,Experiment 2 (test preview),8,hidden,3.0,a,,a,2.0,,,1.0,1,1.0,570.3409999994328
133,21.0,easy,explanation,Experiment 2 (test preview),9,visible,3.0,a,1.0,b,0.0,,,1.0,2,0.0,1020.0709999998217
133,21.0,easy,explanation,Experiment 2 (test preview),10,visible,2.0,a,0.0,a,2.0,,,1.0,1,1.0,670.4489999999932
133,21.0,easy,explanation,Experiment 2 (test preview),11,visible,0.0,a,2.0,b,2.0,,,2.0,1,0.0,550.682999999437
133,21.0,easy,explanation,Experiment 2 (test preview),12,hidden,2.0,a,,a,2.0,,,1.0,2,0.0,465.1399999994319
133,21.0,easy,explanation,Experiment 2 (test preview),13,visible,0.0,b,2.0,a,0.0,,,2.0,2,1.0,3998.565999999992
133,21.0,easy,explanation,Experiment 2 (test preview),14,visible,3.0,a,1.0,a,0.0,,,1.0,2,0.0,3062.6860000001907
133,21.0,easy,explanation,Experiment 2 (test preview),15,visible,0.0,b,2.0,a,3.0,,,2.0,2,1.0,967.3159999994386
133,21.0,easy,explanation,Experiment 2 (test preview),16,hidden,2.0,b,,b,2.0,,,2.0,1,0.0,881.0909999999858
133,21.0,easy,explanation,Experiment 2 (test preview),17,hidden,3.0,a,,b,0.0,,,1.0,1,1.0,689.7669999999925
133,21.0,easy,explanation,Experiment 2 (test preview),18,hidden,0.0,a,,a,3.0,,,2.0,2,1.0,381.2349999998114
133,21.0,easy,explanation,Experiment 2 (test preview),19,hidden,0.0,b,,b,2.0,,,2.0,1,0.0,609.7840000001888
133,21.0,easy,explanation,Experiment 2 (test preview),20,visible,0.0,b,2.0,b,2.0,,,2.0,2,1.0,498.3819999998086
136,21.0,easy,explanation,Experiment 2 (test preview),1,visible,3.0,a,0.0,a,2.0,,,1.0,2,0.0,1921.5979999880656
136,21.0,easy,explanation,Experiment 2 (test preview),2,visible,0.0,b,2.0,a,0.0,,,2.0,2,1.0,1572.4010000238486
136,21.0,easy,explanation,Experiment 2 (test preview),3,hidden,0.0,b,,a,0.0,,,2.0,1,0.0,5014.910000000004
136,21.0,easy,explanation,Experiment 2 (test preview),4,visible,3.0,a,1.0,b,0.0,,,1.0,1,1.0,5072.660999999993
136,21.0,easy,explanation,Experiment 2 (test preview),5,visible,0.0,a,2.0,a,0.0,,,2.0,2,1.0,2261.92699997616
136,21.0,easy,explanation,Experiment 2 (test preview),6,hidden,3.0,a,,a,2.0,,,1.0,2,0.0,2569.533000023832
136,21.0,easy,explanation,Experiment 2 (test preview),7,hidden,3.0,a,,b,0.0,,,1.0,1,1.0,2876.2140000238437
136,21.0,easy,explanation,Experiment 2 (test preview),8,hidden,3.0,b,,a,0.0,,,2.0,2,1.0,1421.530999976152
136,21.0,easy,explanation,Experiment 2 (test preview),9,visible,0.0,b,2.0,a,3.0,,,2.0,2,1.0,1058.7200000238372
136,21.0,easy,explanation,Experiment 2 (test preview),10,visible,0.0,b,2.0,b,2.0,,,2.0,2,1.0,332.915999988094
136,21.0,easy,explanation,Experiment 2 (test preview),11,visible,2.0,a,0.0,a,2.0,,,1.0,2,0.0,663.531999988074
136,21.0,easy,explanation,Experiment 2 (test preview),12,hidden,0.0,a,,a,0.0,,,2.0,1,0.0,336.69699997617863
136,21.0,easy,explanation,Experiment 2 (test preview),13,visible,2.0,a,0.0,b,2.0,,,1.0,2,0.0,317.00999998807674
136,21.0,easy,explanation,Experiment 2 (test preview),14,hidden,0.0,b,,b,2.0,,,2.0,2,1.0,354.316999976174
136,21.0,easy,explanation,Experiment 2 (test preview),15,hidden,2.0,b,,b,2.0,,,2.0,2,1.0,784.9089999880525
136,21.0,easy,explanation,Experiment 2 (test preview),16,hidden,3.0,a,,b,2.0,,,1.0,2,0.0,1256.4579999761772
136,21.0,easy,explanation,Experiment 2 (test preview),17,hidden,0.0,a,,a,3.0,,,2.0,2,1.0,384.7610000238637
136,21.0,easy,explanation,Experiment 2 (test preview),18,hidden,2.0,a,,a,2.0,,,1.0,2,0.0,2084.6450000000186
136,21.0,easy,explanation,Experiment 2 (test preview),19,visible,3.0,a,1.0,a,0.0,,,1.0,2,0.0,448.7889999880572
136,21.0,easy,explanation,Experiment 2 (test preview),20,visible,0.0,a,2.0,b,2.0,,,2.0,2,1.0,371.6179999761516
137,21.0,easy,explanation,Experiment 2 (test preview),1,visible,2.0,a,0.0,a,2.0,,,1.0,1,1.0,3561.7990000003483
137,21.0,easy,explanation,Experiment 2 (test preview),2,visible,0.0,b,2.0,b,2.0,,,2.0,2,1.0,7668.512000000395
137,21.0,easy,explanation,Experiment 2 (test preview),3,hidden,2.0,a,,a,2.0,,,1.0,1,1.0,1756.6269999988726
137,21.0,easy,explanation,Experiment 2 (test preview),4,visible,2.0,a,0.0,b,2.0,,,1.0,2,0.0,6418.971999999252
137,21.0,easy,explanation,Experiment 2 (test preview),5,hidden,0.0,b,,b,2.0,,,2.0,1,0.0,573.2860000000219
137,21.0,easy,explanation,Experiment 2 (test preview),6,hidden,2.0,b,,b,2.0,,,2.0,1,0.0,628.5619999988703
137,21.0,easy,explanation,Experiment 2 (test preview),7,hidden,3.0,a,,b,2.0,,,1.0,2,0.0,596.2099999996135
137,21.0,easy,explanation,Experiment 2 (test preview),8,hidden,0.0,b,,a,0.0,,,2.0,1,0.0,5448.714999999269
137,21.0,easy,explanation,Experiment 2 (test preview),9,visible,0.0,a,2.0,a,0.0,,,2.0,1,0.0,938.7380000003614
137,21.0,easy,explanation,Experiment 2 (test preview),10,visible,3.0,a,1.0,a,0.0,,,1.0,2,0.0,529.9580000003916
137,21.0,easy,explanation,Experiment 2 (test preview),11,hidden,0.0,a,,a,3.0,,,2.0,2,1.0,2406.4079999996466
137,21.0,easy,explanation,Experiment 2 (test preview),12,hidden,3.0,b,,a,0.0,,,2.0,1,0.0,555.4229999996023
137,21.0,easy,explanation,Experiment 2 (test preview),13,visible,0.0,b,2.0,a,3.0,,,2.0,2,1.0,6283.872000000381
137,21.0,easy,explanation,Experiment 2 (test preview),14,hidden,3.0,a,,a,2.0,,,1.0,1,1.0,453.0989999996382
137,21.0,easy,explanation,Experiment 2 (test preview),15,hidden,0.0,a,,a,0.0,,,2.0,2,1.0,473.7069999996456
137,21.0,easy,explanation,Experiment 2 (test preview),16,visible,0.0,b,2.0,a,0.0,,,2.0,2,1.0,448.97299999924144
137,21.0,easy,explanation,Experiment 2 (test preview),17,visible,3.0,a,0.0,a,2.0,,,1.0,1,1.0,401.3519999992568
137,21.0,easy,explanation,Experiment 2 (test preview),18,visible,3.0,a,1.0,b,0.0,,,1.0,2,0.0,1366.5849999988568
137,21.0,easy,explanation,Experiment 2 (test preview),19,hidden,3.0,a,,b,0.0,,,1.0,1,1.0,1867.3020000000247
137,21.0,easy,explanation,Experiment 2 (test preview),20,visible,0.0,a,2.0,b,2.0,,,2.0,2,1.0,2530.464999999269
135,21.0,easy,explanation,Experiment 2 (test preview),1,hidden,3.0,a,,b,0.0,,,1.0,2,0.0,2556.541999904613
135,21.0,easy,explanation,Experiment 2 (test preview),2,hidden,0.0,b,,b,2.0,,,2.0,2,1.0,2244.021999904653
135,21.0,easy,explanation,Experiment 2 (test preview),3,visible,2.0,a,0.0,a,2.0,,,1.0,1,1.0,3343.408999999985
135,21.0,easy,explanation,Experiment 2 (test preview),4,hidden,3.0,a,,b,2.0,,,1.0,2,0.0,1206.0289999046363
135,21.0,easy,explanation,Experiment 2 (test preview),5,hidden,0.0,a,,a,0.0,,,2.0,1,0.0,1116.657000095351
135,21.0,easy,explanation,Experiment 2 (test preview),6,visible,3.0,a,1.0,b,0.0,,,1.0,2,0.0,915.8169999046368
135,21.0,easy,explanation,Experiment 2 (test preview),7,visible,3.0,a,1.0,a,0.0,,,1.0,1,1.0,1182.0050000953488
135,21.0,easy,explanation,Experiment 2 (test preview),8,hidden,3.0,b,,a,0.0,,,2.0,2,1.0,1838.344999999972
135,21.0,easy,explanation,Experiment 2 (test preview),9,hidden,0.0,a,,a,3.0,,,2.0,1,0.0,786.3389999999781
135,21.0,easy,explanation,Experiment 2 (test preview),10,visible,0.0,a,2.0,a,0.0,,,2.0,1,0.0,747.6990001907106
135,21.0,easy,explanation,Experiment 2 (test preview),11,visible,0.0,b,2.0,a,0.0,,,2.0,2,1.0,1552.1919999046368
135,21.0,easy,explanation,Experiment 2 (test preview),12,hidden,3.0,a,,a,2.0,,,1.0,1,1.0,799.4719999046065
135,21.0,easy,explanation,Experiment 2 (test preview),13,visible,2.0,a,0.0,b,2.0,,,1.0,2,0.0,777.2519999999786
135,21.0,easy,explanation,Experiment 2 (test preview),14,hidden,0.0,b,,a,0.0,,,2.0,2,1.0,668.8560001907172
135,21.0,easy,explanation,Experiment 2 (test preview),15,hidden,2.0,b,,b,2.0,,,2.0,2,1.0,2877.8759999999893
135,21.0,easy,explanation,Experiment 2 (test preview),16,visible,0.0,b,2.0,b,2.0,,,2.0,2,1.0,3871.900000095368
135,21.0,easy,explanation,Experiment 2 (test preview),17,visible,0.0,b,2.0,a,3.0,,,2.0,2,1.0,605.3599999046419
135,21.0,easy,explanation,Experiment 2 (test preview),18,visible,0.0,a,2.0,b,2.0,,,2.0,2,1.0,781.0749998092651
135,21.0,easy,explanation,Experiment 2 (test preview),19,visible,3.0,a,0.0,a,2.0,,,1.0,1,1.0,1100.2350001907323
135,21.0,easy,explanation,Experiment 2 (test preview),20,hidden,2.0,a,,a,2.0,,,1.0,1,1.0,545.5259998092661
134,21.0,easy,explanation,Experiment 2 (test preview),1,hidden,3.0,a,,a,2.0,,,1.0,2,0.0,2878.0099999880767
134,21.0,easy,explanation,Experiment 2 (test preview),2,visible,2.0,a,0.0,a,2.0,,,1.0,2,0.0,4379.950999988068
134,21.0,easy,explanation,Experiment 2 (test preview),3,visible,3.0,a,1.0,b,0.0,,,1.0,1,1.0,594.6870000000054
134,21.0,easy,explanation,Experiment 2 (test preview),4,hidden,3.0,a,,b,2.0,,,1.0,1,1.0,369.3960000000079
134,21.0,easy,explanation,Experiment 2 (test preview),5,hidden,2.0,a,,a,2.0,,,1.0,2,0.0,611.635999988066
134,21.0,easy,explanation,Experiment 2 (test preview),6,hidden,0.0,a,,a,3.0,,,2.0,2,1.0,525.1990000000224
134,21.0,easy,explanation,Experiment 2 (test preview),7,visible,3.0,a,1.0,a,0.0,,,1.0,2,0.0,390.3579999880749
134,21.0,easy,explanation,Experiment 2 (test preview),8,hidden,0.0,a,,a,0.0,,,2.0,2,1.0,1941.7750000238304
134,21.0,easy,explanation,Experiment 2 (test preview),9,hidden,0.0,b,,b,2.0,,,2.0,1,0.0,3622.3120000238414
134,21.0,easy,explanation,Experiment 2 (test preview),10,visible,0.0,a,2.0,b,2.0,,,2.0,1,0.0,498.5570000238368
134,21.0,easy,explanation,Experiment 2 (test preview),11,visible,2.0,a,0.0,b,2.0,,,1.0,1,1.0,615.2210000000196
134,21.0,easy,explanation,Experiment 2 (test preview),12,visible,3.0,a,0.0,a,2.0,,,1.0,2,0.0,446.3600000119186
134,21.0,easy,explanation,Experiment 2 (test preview),13,visible,0.0,b,2.0,a,0.0,,,2.0,2,1.0,396.94800003577257
134,21.0,easy,explanation,Experiment 2 (test preview),14,hidden,0.0,b,,a,0.0,,,2.0,2,1.0,433.2050000238232
134,21.0,easy,explanation,Experiment 2 (test preview),15,visible,0.0,b,2.0,a,3.0,,,2.0,2,1.0,685.3250000238186
134,21.0,easy,explanation,Experiment 2 (test preview),16,hidden,2.0,b,,b,2.0,,,2.0,2,1.0,503.3499999999767
134,21.0,easy,explanation,Experiment 2 (test preview),17,visible,0.0,a,2.0,a,0.0,,,2.0,2,1.0,502.0400000238442
134,21.0,easy,explanation,Experiment 2 (test preview),18,visible,0.0,b,2.0,b,2.0,,,2.0,2,1.0,2792.5430000119377
134,21.0,easy,explanation,Experiment 2 (test preview),19,hidden,3.0,a,,b,0.0,,,1.0,1,1.0,408.308000023826
134,21.0,easy,explanation,Experiment 2 (test preview),20,hidden,3.0,b,,a,0.0,,,2.0,2,1.0,383.68599999998696
138,21.0,easy,explanation,Experiment 2 (test preview),1,visible,0.0,a,2.0,a,0.0,,,2.0,2,1.0,7113.0
138,21.0,easy,explanation,Experiment 2 (test preview),2,visible,3.0,a,1.0,a,0.0,,,1.0,2,0.0,10222.0
138,21.0,easy,explanation,Experiment 2 (test preview),3,hidden,2.0,b,,b,2.0,,,2.0,1,0.0,8889.0
138,21.0,easy,explanation,Experiment 2 (test preview),4,visible,0.0,b,2.0,a,0.0,,,2.0,2,1.0,406.0
138,21.0,easy,explanation,Experiment 2 (test preview),5,visible,3.0,a,1.0,b,0.0,,,1.0,1,1.0,326.0
138,21.0,easy,explanation,Experiment 2 (test preview),6,hidden,0.0,a,,a,3.0,,,2.0,2,1.0,990.0
138,21.0,easy,explanation,Experiment 2 (test preview),7,visible,2.0,a,0.0,a,2.0,,,1.0,2,0.0,316.0
138,21.0,easy,explanation,Experiment 2 (test preview),8,hidden,3.0,a,,a,2.0,,,1.0,2,0.0,410.0
138,21.0,easy,explanation,Experiment 2 (test preview),9,visible,0.0,b,2.0,b,2.0,,,2.0,1,0.0,319.0
138,21.0,easy,explanation,Experiment 2 (test preview),10,visible,0.0,b,2.0,a,3.0,,,2.0,2,1.0,455.0
138,21.0,easy,explanation,Experiment 2 (test preview),11,hidden,3.0,a,,b,2.0,,,1.0,1,1.0,308.0
138,21.0,easy,explanation,Experiment 2 (test preview),12,hidden,2.0,a,,a,2.0,,,1.0,2,0.0,210.0
138,21.0,easy,explanation,Experiment 2 (test preview),13,hidden,0.0,b,,b,2.0,,,2.0,1,0.0,1430.0
138,21.0,easy,explanation,Experiment 2 (test preview),14,hidden,0.0,b,,a,0.0,,,2.0,2,1.0,418.0
138,21.0,easy,explanation,Experiment 2 (test preview),15,visible,0.0,a,2.0,b,2.0,,,2.0,1,0.0,1411.0
138,21.0,easy,explanation,Experiment 2 (test preview),16,visible,3.0,a,0.0,a,2.0,,,1.0,2,0.0,1149.0
138,21.0,easy,explanation,Experiment 2 (test preview),17,hidden,0.0,a,,a,0.0,,,2.0,2,1.0,290.0
138,21.0,easy,explanation,Experiment 2 (test preview),18,hidden,3.0,b,,a,0.0,,,2.0,2,1.0,298.0
138,21.0,easy,explanation,Experiment 2 (test preview),19,visible,2.0,a,0.0,b,2.0,,,1.0,1,1.0,222.0
138,21.0,easy,explanation,Experiment 2 (test preview),20,hidden,3.0,a,,b,0.0,,,1.0,1,1.0,518.0
139,21.0,easy,explanation,Experiment 2 (test preview),1,hidden,0.0,b,,b,2.0,,,2.0,2,1.0,5096.773999809288
139,21.0,easy,explanation,Experiment 2 (test preview),2,visible,2.0,a,0.0,a,2.0,,,1.0,1,1.0,3617.962
139,21.0,easy,explanation,Experiment 2 (test preview),3,visible,3.0,a,1.0,a,0.0,,,1.0,2,0.0,1247.691999999981
139,21.0,easy,explanation,Experiment 2 (test preview),4,hidden,3.0,a,,b,2.0,,,1.0,2,0.0,1205.033999999985
139,21.0,easy,explanation,Experiment 2 (test preview),5,visible,0.0,a,2.0,a,0.0,,,2.0,2,1.0,2393.9160000000265
139,21.0,easy,explanation,Experiment 2 (test preview),6,visible,3.0,a,0.0,a,2.0,,,1.0,1,1.0,2733.716000000015
139,21.0,easy,explanation,Experiment 2 (test preview),7,hidden,3.0,a,,b,0.0,,,1.0,1,1.0,1020.3050000953954
139,21.0,easy,explanation,Experiment 2 (test preview),8,visible,0.0,b,2.0,a,0.0,,,2.0,2,1.0,1039.8439998092365
139,21.0,easy,explanation,Experiment 2 (test preview),9,visible,3.0,a,1.0,b,0.0,,,1.0,1,1.0,10000.255000000005
139,21.0,easy,explanation,Experiment 2 (test preview),10,visible,0.0,b,2.0,b,2.0,,,2.0,2,1.0,839.96800019074
139,21.0,easy,explanation,Experiment 2 (test preview),11,hidden,0.0,a,,a,0.0,,,2.0,2,1.0,1144.624999904656
139,21.0,easy,explanation,Experiment 2 (test preview),12,hidden,3.0,a,,a,2.0,,,1.0,1,1.0,1815.9259999046333
139,21.0,easy,explanation,Experiment 2 (test preview),13,visible,2.0,a,0.0,b,2.0,,,1.0,2,0.0,1097.3530001907493
139,21.0,easy,explanation,Experiment 2 (test preview),14,visible,0.0,a,2.0,b,2.0,,,2.0,2,1.0,757.640000000014
139,21.0,easy,explanation,Experiment 2 (test preview),15,hidden,2.0,b,,b,2.0,,,2.0,2,1.0,1057.489000190748
139,21.0,easy,explanation,Experiment 2 (test preview),16,hidden,0.0,a,,a,3.0,,,2.0,2,1.0,1965.316000095394
139,21.0,easy,explanation,Experiment 2 (test preview),17,visible,0.0,b,2.0,a,3.0,,,2.0,2,1.0,1116.491999809281
139,21.0,easy,explanation,Experiment 2 (test preview),18,hidden,0.0,b,,a,0.0,,,2.0,1,0.0,16719.40200019075
139,21.0,easy,explanation,Experiment 2 (test preview),19,hidden,2.0,a,,a,2.0,,,1.0,1,1.0,504.9270000000252
139,21.0,easy,explanation,Experiment 2 (test preview),20,hidden,3.0,b,,a,0.0,,,2.0,2,1.0,953.4459998092498
140,21.0,easy,explanation,Experiment 2 (test preview),1,visible,0.0,b,2.0,b,2.0,,,2.0,1,0.0,3272.0250000000237
140,21.0,easy,explanation,Experiment 2 (test preview),2,visible,3.0,a,1.0,b,0.0,,,1.0,2,0.0,3856.6649999881047
140,21.0,easy,explanation,Experiment 2 (test preview),3,hidden,2.0,b,,b,2.0,,,2.0,1,0.0,4397.334999976156
140,21.0,easy,explanation,Experiment 2 (test preview),4,hidden,3.0,a,,b,0.0,,,1.0,2,0.0,1856.686999994039
140,21.0,easy,explanation,Experiment 2 (test preview),5,visible,0.0,b,2.0,a,0.0,,,2.0,2,1.0,5495.831999999995
140,21.0,easy,explanation,Experiment 2 (test preview),6,hidden,0.0,b,,b,2.0,,,2.0,2,1.0,4863.306999976165
140,21.0,easy,explanation,Experiment 2 (test preview),7,visible,0.0,a,2.0,b,2.0,,,2.0,1,0.0,4295.911000000022
140,21.0,easy,explanation,Experiment 2 (test preview),8,hidden,3.0,b,,a,0.0,,,2.0,2,1.0,3000.146999976132
140,21.0,easy,explanation,Experiment 2 (test preview),9,hidden,0.0,a,,a,3.0,,,2.0,2,1.0,4111.223999999987
140,21.0,easy,explanation,Experiment 2 (test preview),10,visible,0.0,b,2.0,a,3.0,,,2.0,2,1.0,4620.831999982125
140,21.0,easy,explanation,Experiment 2 (test preview),11,visible,2.0,a,0.0,a,2.0,,,1.0,2,0.0,3106.0999999881024
140,21.0,easy,explanation,Experiment 2 (test preview),12,hidden,0.0,a,,a,0.0,,,2.0,1,0.0,2328.002999982098
140,21.0,easy,explanation,Experiment 2 (test preview),13,visible,2.0,a,0.0,b,2.0,,,1.0,2,0.0,1977.8389999761712
140,21.0,easy,explanation,Experiment 2 (test preview),14,hidden,0.0,b,,a,0.0,,,2.0,1,0.0,1390.6619999821414
140,21.0,easy,explanation,Experiment 2 (test preview),15,visible,0.0,a,2.0,a,0.0,,,2.0,2,1.0,1754.9599999761558
140,21.0,easy,explanation,Experiment 2 (test preview),16,hidden,3.0,a,,b,2.0,,,1.0,2,0.0,4459.736999976158
140,21.0,easy,explanation,Experiment 2 (test preview),17,visible,3.0,a,1.0,a,0.0,,,1.0,1,1.0,1411.158999999985
140,21.0,easy,explanation,Experiment 2 (test preview),18,hidden,3.0,a,,a,2.0,,,1.0,1,1.0,2797.8579999821377
140,21.0,easy,explanation,Experiment 2 (test preview),19,hidden,2.0,a,,a,2.0,,,1.0,2,0.0,2012.9799999999811
140,21.0,easy,explanation,Experiment 2 (test preview),20,visible,3.0,a,0.0,a,2.0,,,1.0,2,0.0,2017.2689999880968
141,21.0,easy,explanation,Experiment 2 (test preview),1,hidden,0.0,a,,a,3.0,,,2.0,1,0.0,15579.16799997614
141,21.0,easy,explanation,Experiment 2 (test preview),2,hidden,3.0,a,,b,2.0,,,1.0,2,0.0,7947.606000011903
141,21.0,easy,explanation,Experiment 2 (test preview),3,hidden,3.0,b,,a,0.0,,,2.0,2,1.0,10655.180999999982
141,21.0,easy,explanation,Experiment 2 (test preview),4,hidden,0.0,b,,a,0.0,,,2.0,2,1.0,8131.52299997618
141,21.0,easy,explanation,Experiment 2 (test preview),5,visible,0.0,b,2.0,a,0.0,,,2.0,2,1.0,7105.114999999991
141,21.0,easy,explanation,Experiment 2 (test preview),6,hidden,2.0,b,,b,2.0,,,2.0,2,1.0,7596.405000011902
141,21.0,easy,explanation,Experiment 2 (test preview),7,hidden,0.0,b,,b,2.0,,,2.0,1,0.0,5666.532999999996
141,21.0,easy,explanation,Experiment 2 (test preview),8,hidden,0.0,a,,a,0.0,,,2.0,1,0.0,3392.3009999761707
141,21.0,easy,explanation,Experiment 2 (test preview),9,visible,0.0,b,2.0,b,2.0,,,2.0,2,1.0,5915.1189999880735
141,21.0,easy,explanation,Experiment 2 (test preview),10,visible,2.0,a,0.0,b,2.0,,,1.0,2,0.0,10096.030999976152
141,21.0,easy,explanation,Experiment 2 (test preview),11,visible,0.0,a,2.0,b,2.0,,,2.0,2,1.0,3877.511000023864
141,21.0,easy,explanation,Experiment 2 (test preview),12,visible,3.0,a,1.0,b,0.0,,,1.0,1,1.0,13479.445000000009
141,21.0,easy,explanation,Experiment 2 (test preview),13,hidden,3.0,a,,a,2.0,,,1.0,1,1.0,3844.3810000119274
141,21.0,easy,explanation,Experiment 2 (test preview),14,visible,0.0,b,2.0,a,3.0,,,2.0,1,0.0,6561.175000023795
141,21.0,easy,explanation,Experiment 2 (test preview),15,visible,3.0,a,0.0,a,2.0,,,1.0,2,0.0,2937.262000023853
141,21.0,easy,explanation,Experiment 2 (test preview),16,visible,2.0,a,0.0,a,2.0,,,1.0,2,0.0,8026.910000000033
141,21.0,easy,explanation,Experiment 2 (test preview),17,hidden,3.0,a,,b,0.0,,,1.0,1,1.0,6988.713000011863
141,21.0,easy,explanation,Experiment 2 (test preview),18,visible,0.0,a,2.0,a,0.0,,,2.0,2,1.0,6974.677000000025
141,21.0,easy,explanation,Experiment 2 (test preview),19,visible,3.0,a,1.0,a,0.0,,,1.0,1,1.0,8739.012000023853
141,21.0,easy,explanation,Experiment 2 (test preview),20,hidden,2.0,a,,a,2.0,,,1.0,2,0.0,2809.234000023804
142,21.0,easy,explanation,Experiment 2 (test preview),1,hidden,3.0,b,,a,0.0,,,2.0,1,0.0,6546.309999991034
142,21.0,easy,explanation,Experiment 2 (test preview),2,hidden,3.0,a,,b,2.0,,,1.0,1,1.0,5386.767999991076
142,21.0,easy,explanation,Experiment 2 (test preview),3,hidden,2.0,a,,a,2.0,,,1.0,1,1.0,2887.123999988078
142,21.0,easy,explanation,Experiment 2 (test preview),4,visible,2.0,a,0.0,b,2.0,,,1.0,1,1.0,3387.338999997009
142,21.0,easy,explanation,Experiment 2 (test preview),5,visible,0.0,a,2.0,a,0.0,,,2.0,1,0.0,6406.319000000018
142,21.0,easy,explanation,Experiment 2 (test preview),6,hidden,0.0,b,,a,0.0,,,2.0,1,0.0,3348.609999997017
142,21.0,easy,explanation,Experiment 2 (test preview),7,visible,3.0,a,1.0,b,0.0,,,1.0,1,1.0,3113.905999994022
142,21.0,easy,explanation,Experiment 2 (test preview),8,visible,3.0,a,0.0,a,2.0,,,1.0,1,1.0,2752.3809999940568
142,21.0,easy,explanation,Experiment 2 (test preview),9,hidden,0.0,b,,b,2.0,,,2.0,1,0.0,2929.0679999970016
142,21.0,easy,explanation,Experiment 2 (test preview),10,hidden,0.0,a,,a,0.0,,,2.0,2,1.0,2845.088999988104
142,21.0,easy,explanation,Experiment 2 (test preview),11,visible,2.0,a,0.0,a,2.0,,,1.0,1,1.0,1514.2449999880628
142,21.0,easy,explanation,Experiment 2 (test preview),12,visible,3.0,a,1.0,a,0.0,,,1.0,1,1.0,3914.454999994021
142,21.0,easy,explanation,Experiment 2 (test preview),13,visible,0.0,a,2.0,b,2.0,,,2.0,1,0.0,1906.3499999881024
142,21.0,easy,explanation,Experiment 2 (test preview),14,hidden,2.0,b,,b,2.0,,,2.0,1,0.0,3990.3629999940167
142,21.0,easy,explanation,Experiment 2 (test preview),15,hidden,3.0,a,,b,0.0,,,1.0,1,1.0,3121.670999991067
142,21.0,easy,explanation,Experiment 2 (test preview),16,visible,0.0,b,2.0,a,0.0,,,2.0,2,1.0,5395.01299999404
142,21.0,easy,explanation,Experiment 2 (test preview),17,hidden,0.0,a,,a,3.0,,,2.0,1,0.0,616.7899999910733
142,21.0,easy,explanation,Experiment 2 (test preview),18,visible,0.0,b,2.0,a,3.0,,,2.0,1,0.0,1146.5729999881005
142,21.0,easy,explanation,Experiment 2 (test preview),19,visible,0.0,b,2.0,b,2.0,,,2.0,1,0.0,1675.1709999940358
142,21.0,easy,explanation,Experiment 2 (test preview),20,hidden,3.0,a,,a,2.0,,,1.0,1,1.0,1675.5059999910882
153,21.0,easy,explanation,Experiment 2 (test preview),1,visible,0.0,a,2.0,a,0.0,,,2.0,2,1.0,9379.689000002923
153,21.0,easy,explanation,Experiment 2 (test preview),2,hidden,0.0,b,,a,0.0,,,2.0,2,1.0,6849.973000005935
153,21.0,easy,explanation,Experiment 2 (test preview),3,visible,3.0,a,0.0,a,2.0,,,1.0,1,1.0,12852.786000011954
153,21.0,easy,explanation,Experiment 2 (test preview),4,hidden,3.0,b,,a,0.0,,,2.0,2,1.0,9784.348000005935
153,21.0,easy,explanation,Experiment 2 (test preview),5,hidden,3.0,a,,b,2.0,,,1.0,1,1.0,6471.748000005959
153,21.0,easy,explanation,Experiment 2 (test preview),6,hidden,0.0,a,,a,3.0,,,2.0,2,1.0,7106.509000006015
153,21.0,easy,explanation,Experiment 2 (test preview),7,hidden,0.0,a,,a,0.0,,,2.0,2,1.0,14789.12700001197
153,21.0,easy,explanation,Experiment 2 (test preview),8,visible,2.0,a,0.0,b,2.0,,,1.0,1,1.0,22152.211000003037
153,21.0,easy,explanation,Experiment 2 (test preview),9,hidden,3.0,a,,b,0.0,,,1.0,2,0.0,18792.030000005965
153,21.0,easy,explanation,Experiment 2 (test preview),10,visible,0.0,a,2.0,b,2.0,,,2.0,2,1.0,9206.943000008934
153,21.0,easy,explanation,Experiment 2 (test preview),11,visible,0.0,b,2.0,b,2.0,,,2.0,1,0.0,5548.77800000296
153,21.0,easy,explanation,Experiment 2 (test preview),12,hidden,2.0,b,,b,2.0,,,2.0,2,1.0,6238.644000008935
153,21.0,easy,explanation,Experiment 2 (test preview),13,hidden,0.0,b,,b,2.0,,,2.0,2,1.0,2836.0849999999627
153,21.0,easy,explanation,Experiment 2 (test preview),14,visible,0.0,b,2.0,a,3.0,,,2.0,2,1.0,2731.908000005991
153,21.0,easy,explanation,Experiment 2 (test preview),15,hidden,2.0,a,,a,2.0,,,1.0,1,1.0,26329.36800000898
153,21.0,easy,explanation,Experiment 2 (test preview),16,visible,3.0,a,1.0,b,0.0,,,1.0,1,1.0,7859.732000008924
153,21.0,easy,explanation,Experiment 2 (test preview),17,hidden,3.0,a,,a,2.0,,,1.0,2,0.0,9815.659999999916
153,21.0,easy,explanation,Experiment 2 (test preview),18,visible,3.0,a,1.0,a,0.0,,,1.0,2,0.0,14895.297000003047
153,21.0,easy,explanation,Experiment 2 (test preview),19,visible,0.0,b,2.0,a,0.0,,,2.0,2,1.0,7354.460999999894
153,21.0,easy,explanation,Experiment 2 (test preview),20,visible,2.0,a,0.0,a,2.0,,,1.0,1,1.0,10324.555000005988
144,21.0,easy,explanation,Experiment 2 (test preview),1,hidden,0.0,b,,a,0.0,,,2.0,2,1.0,2891.0
144,21.0,easy,explanation,Experiment 2 (test preview),2,visible,3.0,a,0.0,a,2.0,,,1.0,1,1.0,2227.0
144,21.0,easy,explanation,Experiment 2 (test preview),3,hidden,3.0,a,,b,2.0,,,1.0,1,1.0,1840.0
144,21.0,easy,explanation,Experiment 2 (test preview),4,visible,2.0,a,0.0,b,2.0,,,1.0,1,1.0,1938.0
144,21.0,easy,explanation,Experiment 2 (test preview),5,hidden,3.0,b,,a,0.0,,,2.0,2,1.0,1369.0
144,21.0,easy,explanation,Experiment 2 (test preview),6,hidden,0.0,b,,b,2.0,,,2.0,1,0.0,1266.0
144,21.0,easy,explanation,Experiment 2 (test preview),7,visible,3.0,a,1.0,a,0.0,,,1.0,1,1.0,3320.0
144,21.0,easy,explanation,Experiment 2 (test preview),8,visible,0.0,b,2.0,b,2.0,,,2.0,2,1.0,4826.0
144,21.0,easy,explanation,Experiment 2 (test preview),9,hidden,3.0,a,,b,0.0,,,1.0,1,1.0,5944.000000000058
144,21.0,easy,explanation,Experiment 2 (test preview),10,hidden,2.0,a,,a,2.0,,,1.0,1,1.0,1669.0
144,21.0,easy,explanation,Experiment 2 (test preview),11,visible,3.0,a,1.0,b,0.0,,,1.0,1,1.0,2389.0
144,21.0,easy,explanation,Experiment 2 (test preview),12,hidden,2.0,b,,b,2.0,,,2.0,2,1.0,4141.0
144,21.0,easy,explanation,Experiment 2 (test preview),13,visible,0.0,b,2.0,a,3.0,,,2.0,2,1.0,3013.000000000058
144,21.0,easy,explanation,Experiment 2 (test preview),14,hidden,0.0,a,,a,3.0,,,2.0,2,1.0,1217.0
144,21.0,easy,explanation,Experiment 2 (test preview),15,hidden,0.0,a,,a,0.0,,,2.0,2,1.0,6022.0
144,21.0,easy,explanation,Experiment 2 (test preview),16,hidden,3.0,a,,a,2.0,,,1.0,1,1.0,3003.0
144,21.0,easy,explanation,Experiment 2 (test preview),17,visible,0.0,a,2.0,b,2.0,,,2.0,1,0.0,9459.0
144,21.0,easy,explanation,Experiment 2 (test preview),18,visible,0.0,a,2.0,a,0.0,,,2.0,2,1.0,5254.000000000058
144,21.0,easy,explanation,Experiment 2 (test preview),19,visible,0.0,b,2.0,a,0.0,,,2.0,2,1.0,590.0
144,21.0,easy,explanation,Experiment 2 (test preview),20,visible,2.0,a,0.0,a,2.0,,,1.0,1,1.0,2778.0
147,21.0,easy,explanation,Experiment 2 (test preview),1,visible,0.0,a,2.0,b,2.0,,,2.0,2,1.0,2501.002000023844
147,21.0,easy,explanation,Experiment 2 (test preview),2,hidden,0.0,a,,a,0.0,,,2.0,1,0.0,1625.2440000715433
147,21.0,easy,explanation,Experiment 2 (test preview),3,visible,0.0,b,2.0,a,0.0,,,2.0,2,1.0,2478.45300004771
147,21.0,easy,explanation,Experiment 2 (test preview),4,hidden,3.0,a,,b,2.0,,,1.0,2,0.0,1373.1329999999723
147,21.0,easy,explanation,Experiment 2 (test preview),5,hidden,3.0,a,,b,0.0,,,1.0,2,0.0,9211.325000071549
147,21.0,easy,explanation,Experiment 2 (test preview),6,visible,3.0,a,1.0,b,0.0,,,1.0,1,1.0,5035.274000071513
147,21.0,easy,explanation,Experiment 2 (test preview),7,visible,0.0,b,2.0,b,2.0,,,2.0,2,1.0,1271.017999976175
147,21.0,easy,explanation,Experiment 2 (test preview),8,visible,3.0,a,1.0,a,0.0,,,1.0,1,1.0,9058.62200002384
147,21.0,easy,explanation,Experiment 2 (test preview),9,visible,2.0,a,0.0,a,2.0,,,1.0,1,1.0,2758.110999999976
147,21.0,easy,explanation,Experiment 2 (test preview),10,visible,0.0,a,2.0,a,0.0,,,2.0,1,0.0,1135.2520000238435
147,21.0,easy,explanation,Experiment 2 (test preview),11,visible,0.0,b,2.0,a,3.0,,,2.0,2,1.0,1036.4320000238367
147,21.0,easy,explanation,Experiment 2 (test preview),12,visible,3.0,a,0.0,a,2.0,,,1.0,2,0.0,1203.374000071548
147,21.0,easy,explanation,Experiment 2 (test preview),13,hidden,3.0,b,,a,0.0,,,2.0,2,1.0,2221.0329999761307
147,21.0,easy,explanation,Experiment 2 (test preview),14,hidden,2.0,b,,b,2.0,,,2.0,2,1.0,1620.8180000715074
147,21.0,easy,explanation,Experiment 2 (test preview),15,hidden,0.0,b,,b,2.0,,,2.0,1,0.0,6175.019000023836
147,21.0,easy,explanation,Experiment 2 (test preview),16,hidden,2.0,a,,a,2.0,,,1.0,1,1.0,1878.0250000715023
147,21.0,easy,explanation,Experiment 2 (test preview),17,hidden,0.0,a,,a,3.0,,,2.0,2,1.0,1620.8770000715158
147,21.0,easy,explanation,Experiment 2 (test preview),18,visible,2.0,a,0.0,b,2.0,,,1.0,2,0.0,781.274000071513
147,21.0,easy,explanation,Experiment 2 (test preview),19,hidden,3.0,a,,a,2.0,,,1.0,2,0.0,1951.782999999996
147,21.0,easy,explanation,Experiment 2 (test preview),20,hidden,0.0,b,,a,0.0,,,2.0,2,1.0,2325.307000071509
151,21.0,easy,explanation,Experiment 2 (test preview),1,hidden,0.0,b,,b,2.0,,,2.0,2,1.0,1671.8530000044266
151,21.0,easy,explanation,Experiment 2 (test preview),2,hidden,0.0,b,,a,0.0,,,2.0,2,1.0,474.75400000449736
151,21.0,easy,explanation,Experiment 2 (test preview),3,hidden,0.0,a,,a,0.0,,,2.0,2,1.0,2213.2009999984875
151,21.0,easy,explanation,Experiment 2 (test preview),4,visible,3.0,a,1.0,a,0.0,,,1.0,2,0.0,289.9270000029356
151,21.0,easy,explanation,Experiment 2 (test preview),5,hidden,2.0,b,,b,2.0,,,2.0,2,1.0,708.8959999999497
151,21.0,easy,explanation,Experiment 2 (test preview),6,visible,3.0,a,1.0,b,0.0,,,1.0,2,0.0,295.3239999985089
151,21.0,easy,explanation,Experiment 2 (test preview),7,visible,0.0,b,2.0,a,3.0,,,2.0,2,1.0,570.7290000044741
151,21.0,easy,explanation,Experiment 2 (test preview),8,visible,0.0,a,2.0,a,0.0,,,2.0,2,1.0,276.0530000014696
151,21.0,easy,explanation,Experiment 2 (test preview),9,hidden,0.0,a,,a,3.0,,,2.0,2,1.0,277.00699999846984
151,21.0,easy,explanation,Experiment 2 (test preview),10,visible,3.0,a,0.0,a,2.0,,,1.0,2,0.0,525.9980000029318
151,21.0,easy,explanation,Experiment 2 (test preview),11,visible,2.0,a,0.0,a,2.0,,,1.0,2,0.0,2013.9719999999504
151,21.0,easy,explanation,Experiment 2 (test preview),12,visible,0.0,b,2.0,b,2.0,,,2.0,2,1.0,354.7889999984764
151,21.0,easy,explanation,Experiment 2 (test preview),13,visible,0.0,b,2.0,a,0.0,,,2.0,2,1.0,2882.7800000029383
151,21.0,easy,explanation,Experiment 2 (test preview),14,hidden,3.0,a,,b,0.0,,,1.0,2,0.0,404.8649999999907
151,21.0,easy,explanation,Experiment 2 (test preview),15,visible,0.0,a,2.0,b,2.0,,,2.0,2,1.0,332.1600000044564
151,21.0,easy,explanation,Experiment 2 (test preview),16,hidden,3.0,a,,a,2.0,,,1.0,2,0.0,564.1360000014538
151,21.0,easy,explanation,Experiment 2 (test preview),17,hidden,3.0,b,,a,0.0,,,2.0,2,1.0,784.7919999985024
151,21.0,easy,explanation,Experiment 2 (test preview),18,hidden,3.0,a,,b,2.0,,,1.0,2,0.0,339.7820000030333
151,21.0,easy,explanation,Experiment 2 (test preview),19,visible,2.0,a,0.0,b,2.0,,,1.0,2,0.0,940.862000001478
151,21.0,easy,explanation,Experiment 2 (test preview),20,hidden,2.0,a,,a,2.0,,,1.0,2,0.0,501.2939999999944
161,21.0,easy,explanation,Experiment 2 (test preview),1,visible,3.0,a,1.0,a,0.0,,,1.0,2,0.0,7958.170999999973
161,21.0,easy,explanation,Experiment 2 (test preview),2,hidden,3.0,a,,b,2.0,,,1.0,2,0.0,8466.572999964235
161,21.0,easy,explanation,Experiment 2 (test preview),3,visible,2.0,a,0.0,b,2.0,,,1.0,1,1.0,2077.534999964293
161,21.0,easy,explanation,Experiment 2 (test preview),4,hidden,0.0,b,,b,2.0,,,2.0,1,0.0,3485.761999988113
161,21.0,easy,explanation,Experiment 2 (test preview),5,hidden,2.0,a,,a,2.0,,,1.0,1,1.0,5132.019999964279
161,21.0,easy,explanation,Experiment 2 (test preview),6,visible,3.0,a,1.0,b,0.0,,,1.0,2,0.0,2104.847999999998
161,21.0,easy,explanation,Experiment 2 (test preview),7,visible,0.0,a,2.0,a,0.0,,,2.0,1,0.0,3253.101999952341
161,21.0,easy,explanation,Experiment 2 (test preview),8,hidden,0.0,b,,a,0.0,,,2.0,1,0.0,2573.8289999642875
161,21.0,easy,explanation,Experiment 2 (test preview),9,visible,3.0,a,0.0,a,2.0,,,1.0,2,0.0,1213.9219999761551
161,21.0,easy,explanation,Experiment 2 (test preview),10,hidden,3.0,b,,a,0.0,,,2.0,2,1.0,972.8909999880708
161,21.0,easy,explanation,Experiment 2 (test preview),11,hidden,3.0,a,,a,2.0,,,1.0,2,0.0,3877.4899999761255
161,21.0,easy,explanation,Experiment 2 (test preview),12,visible,0.0,b,2.0,a,3.0,,,2.0,1,0.0,3029.570999988122
161,21.0,easy,explanation,Experiment 2 (test preview),13,visible,0.0,b,2.0,a,0.0,,,2.0,2,1.0,3474.019999988028
161,21.0,easy,explanation,Experiment 2 (test preview),14,visible,0.0,a,2.0,b,2.0,,,2.0,1,0.0,2740.953999976162
161,21.0,easy,explanation,Experiment 2 (test preview),15,hidden,3.0,a,,b,0.0,,,1.0,2,0.0,2451.0269999642624
161,21.0,easy,explanation,Experiment 2 (test preview),16,visible,0.0,b,2.0,b,2.0,,,2.0,1,0.0,3998.066999964183
161,21.0,easy,explanation,Experiment 2 (test preview),17,hidden,0.0,a,,a,3.0,,,2.0,2,1.0,2773.1809999523684
161,21.0,easy,explanation,Experiment 2 (test preview),18,visible,2.0,a,0.0,a,2.0,,,1.0,1,1.0,4717.652999988059
161,21.0,easy,explanation,Experiment 2 (test preview),19,hidden,2.0,b,,b,2.0,,,2.0,2,1.0,3557.10899997619
161,21.0,easy,explanation,Experiment 2 (test preview),20,hidden,0.0,a,,a,0.0,,,2.0,2,1.0,1978.9389999522828
145,21.0,easy,explanation,Experiment 2 (test preview),1,hidden,3.0,b,,a,0.0,,,2.0,2,1.0,5708.031000023824
145,21.0,easy,explanation,Experiment 2 (test preview),2,hidden,0.0,a,,a,3.0,,,2.0,1,0.0,3190.847999976133
145,21.0,easy,explanation,Experiment 2 (test preview),3,hidden,2.0,b,,b,2.0,,,2.0,1,0.0,795.8099999999977
145,21.0,easy,explanation,Experiment 2 (test preview),4,visible,3.0,a,1.0,b,0.0,,,1.0,1,1.0,754.5860000238172
145,21.0,easy,explanation,Experiment 2 (test preview),5,hidden,3.0,a,,b,0.0,,,1.0,1,1.0,770.2760000238195
145,21.0,easy,explanation,Experiment 2 (test preview),6,hidden,0.0,b,,a,0.0,,,2.0,2,1.0,860.8319999999949
145,21.0,easy,explanation,Experiment 2 (test preview),7,hidden,0.0,b,,b,2.0,,,2.0,1,0.0,1367.1919999523088
145,21.0,easy,explanation,Experiment 2 (test preview),8,visible,0.0,b,2.0,b,2.0,,,2.0,1,0.0,746.2040000476991
145,21.0,easy,explanation,Experiment 2 (test preview),9,hidden,2.0,a,,a,2.0,,,1.0,1,1.0,2134.563999976148
145,21.0,easy,explanation,Experiment 2 (test preview),10,visible,3.0,a,1.0,a,0.0,,,1.0,1,1.0,873.2189999761758
145,21.0,easy,explanation,Experiment 2 (test preview),11,visible,0.0,b,2.0,a,0.0,,,2.0,2,1.0,1069.990999976173
145,21.0,easy,explanation,Experiment 2 (test preview),12,visible,0.0,a,2.0,b,2.0,,,2.0,1,0.0,6342.049999952316
145,21.0,easy,explanation,Experiment 2 (test preview),13,visible,0.0,b,2.0,a,3.0,,,2.0,2,1.0,3381.1180000000168
145,21.0,easy,explanation,Experiment 2 (test preview),14,visible,2.0,a,0.0,b,2.0,,,1.0,1,1.0,668.862999976147
145,21.0,easy,explanation,Experiment 2 (test preview),15,visible,3.0,a,0.0,a,2.0,,,1.0,1,1.0,554.8760000476614
145,21.0,easy,explanation,Experiment 2 (test preview),16,hidden,3.0,a,,b,2.0,,,1.0,1,1.0,1248.0470000238274
145,21.0,easy,explanation,Experiment 2 (test preview),17,hidden,0.0,a,,a,0.0,,,2.0,1,0.0,678.4640000238433
145,21.0,easy,explanation,Experiment 2 (test preview),18,visible,2.0,a,0.0,a,2.0,,,1.0,2,0.0,686.26200004766
145,21.0,easy,explanation,Experiment 2 (test preview),19,visible,0.0,a,2.0,a,0.0,,,2.0,1,0.0,602.7580000477028
145,21.0,easy,explanation,Experiment 2 (test preview),20,hidden,3.0,a,,a,2.0,,,1.0,1,1.0,659.6299999523326
146,21.0,easy,explanation,Experiment 2 (test preview),1,visible,0.0,a,2.0,b,2.0,,,2.0,1,0.0,3600.557999976154
146,21.0,easy,explanation,Experiment 2 (test preview),2,hidden,3.0,a,,b,2.0,,,1.0,1,1.0,2829.1239999761456
146,21.0,easy,explanation,Experiment 2 (test preview),3,visible,2.0,a,0.0,a,2.0,,,1.0,2,0.0,1119.263999988092
146,21.0,easy,explanation,Experiment 2 (test preview),4,hidden,0.0,b,,b,2.0,,,2.0,2,1.0,1406.8740000119142
146,21.0,easy,explanation,Experiment 2 (test preview),5,hidden,3.0,b,,a,0.0,,,2.0,2,1.0,3114.670999964233
146,21.0,easy,explanation,Experiment 2 (test preview),6,visible,3.0,a,0.0,a,2.0,,,1.0,1,1.0,2377.071999976178
146,21.0,easy,explanation,Experiment 2 (test preview),7,hidden,3.0,a,,a,2.0,,,1.0,1,1.0,4365.684999964258
146,21.0,easy,explanation,Experiment 2 (test preview),8,visible,3.0,a,1.0,b,0.0,,,1.0,1,1.0,3395.0030000119004
146,21.0,easy,explanation,Experiment 2 (test preview),9,visible,0.0,b,2.0,a,0.0,,,2.0,2,1.0,4070.2010000119335
146,21.0,easy,explanation,Experiment 2 (test preview),10,hidden,2.0,b,,b,2.0,,,2.0,1,0.0,3951.5509999761703
146,21.0,easy,explanation,Experiment 2 (test preview),11,visible,0.0,b,2.0,a,3.0,,,2.0,2,1.0,3117.767999976175
146,21.0,easy,explanation,Experiment 2 (test preview),12,visible,2.0,a,0.0,b,2.0,,,1.0,2,0.0,1372.8469999761437
146,21.0,easy,explanation,Experiment 2 (test preview),13,hidden,0.0,a,,a,3.0,,,2.0,2,1.0,3297.338999999978
146,21.0,easy,explanation,Experiment 2 (test preview),14,visible,3.0,a,1.0,a,0.0,,,1.0,1,1.0,3576.924000011932
146,21.0,easy,explanation,Experiment 2 (test preview),15,hidden,3.0,a,,b,0.0,,,1.0,1,1.0,4877.155999988085
146,21.0,easy,explanation,Experiment 2 (test preview),16,hidden,0.0,b,,a,0.0,,,2.0,2,1.0,5373.581999964255
146,21.0,easy,explanation,Experiment 2 (test preview),17,visible,0.0,b,2.0,b,2.0,,,2.0,1,0.0,4186.894999988086
146,21.0,easy,explanation,Experiment 2 (test preview),18,hidden,2.0,a,,a,2.0,,,1.0,1,1.0,7533.571000011929
146,21.0,easy,explanation,Experiment 2 (test preview),19,visible,0.0,a,2.0,a,0.0,,,2.0,2,1.0,3373.726999988081
146,21.0,easy,explanation,Experiment 2 (test preview),20,hidden,0.0,a,,a,0.0,,,2.0,2,1.0,5184.84900001192
155,21.0,easy,explanation,Experiment 2 (test preview),1,hidden,0.0,a,,a,3.0,,,2.0,2,1.0,5944.293000005942
155,21.0,easy,explanation,Experiment 2 (test preview),2,hidden,2.0,a,,a,2.0,,,1.0,2,0.0,5933.187000005972
155,21.0,easy,explanation,Experiment 2 (test preview),3,visible,0.0,a,2.0,b,2.0,,,2.0,2,1.0,5627.948000011907
155,21.0,easy,explanation,Experiment 2 (test preview),4,hidden,0.0,b,,b,2.0,,,2.0,2,1.0,9085.075999994064
155,21.0,easy,explanation,Experiment 2 (test preview),5,hidden,0.0,b,,a,0.0,,,2.0,2,1.0,9398.821999999986
155,21.0,easy,explanation,Experiment 2 (test preview),6,hidden,3.0,b,,a,0.0,,,2.0,2,1.0,12825.95299999998
155,21.0,easy,explanation,Experiment 2 (test preview),7,visible,0.0,a,2.0,a,0.0,,,2.0,2,1.0,12175.432999994024
155,21.0,easy,explanation,Experiment 2 (test preview),8,visible,0.0,b,2.0,a,3.0,,,2.0,1,0.0,14956.033000005931
155,21.0,easy,explanation,Experiment 2 (test preview),9,visible,3.0,a,1.0,a,0.0,,,1.0,1,1.0,11289.422000005958
155,21.0,easy,explanation,Experiment 2 (test preview),10,visible,2.0,a,0.0,b,2.0,,,1.0,1,1.0,8714.152000005939
155,21.0,easy,explanation,Experiment 2 (test preview),11,hidden,0.0,a,,a,0.0,,,2.0,2,1.0,4256.787999999942
155,21.0,easy,explanation,Experiment 2 (test preview),12,hidden,3.0,a,,a,2.0,,,1.0,1,1.0,6482.901000006008
155,21.0,easy,explanation,Experiment 2 (test preview),13,hidden,3.0,a,,b,2.0,,,1.0,2,0.0,16972.84300000593
155,21.0,easy,explanation,Experiment 2 (test preview),14,visible,3.0,a,0.0,a,2.0,,,1.0,1,1.0,4150.530999999959
155,21.0,easy,explanation,Experiment 2 (test preview),15,visible,2.0,a,0.0,a,2.0,,,1.0,2,0.0,2882.7480000000214
155,21.0,easy,explanation,Experiment 2 (test preview),16,visible,0.0,b,2.0,a,0.0,,,2.0,2,1.0,2417.6689999999944
155,21.0,easy,explanation,Experiment 2 (test preview),17,hidden,2.0,b,,b,2.0,,,2.0,2,1.0,4546.350999994087
155,21.0,easy,explanation,Experiment 2 (test preview),18,visible,3.0,a,1.0,b,0.0,,,1.0,1,1.0,5341.457999999984
155,21.0,easy,explanation,Experiment 2 (test preview),19,hidden,3.0,a,,b,0.0,,,1.0,1,1.0,4715.322999999975
155,21.0,easy,explanation,Experiment 2 (test preview),20,visible,0.0,b,2.0,b,2.0,,,2.0,2,1.0,1144.636000005994
143,21.0,easy,explanation,Experiment 2 (test preview),1,hidden,3.0,a,,b,0.0,,,1.0,1,1.0,3630.0030000119295
143,21.0,easy,explanation,Experiment 2 (test preview),2,visible,0.0,b,2.0,b,2.0,,,2.0,1,0.0,3129.7520000089426
143,21.0,easy,explanation,Experiment 2 (test preview),3,hidden,0.0,b,,b,2.0,,,2.0,2,1.0,2605.502000011911
143,21.0,easy,explanation,Experiment 2 (test preview),4,hidden,0.0,a,,a,0.0,,,2.0,1,0.0,3257.563000008929
143,21.0,easy,explanation,Experiment 2 (test preview),5,hidden,3.0,a,,b,2.0,,,1.0,1,1.0,1267.081000011909
143,21.0,easy,explanation,Experiment 2 (test preview),6,hidden,0.0,a,,a,3.0,,,2.0,2,1.0,896.804999999993
143,21.0,easy,explanation,Experiment 2 (test preview),7,visible,3.0,a,1.0,b,0.0,,,1.0,1,1.0,666.558000008954
143,21.0,easy,explanation,Experiment 2 (test preview),8,hidden,3.0,b,,a,0.0,,,2.0,2,1.0,1045.2030000000086
143,21.0,easy,explanation,Experiment 2 (test preview),9,visible,3.0,a,1.0,a,0.0,,,1.0,1,1.0,1542.098000008933
143,21.0,easy,explanation,Experiment 2 (test preview),10,visible,0.0,b,2.0,a,3.0,,,2.0,1,0.0,369.2210000059568
143,21.0,easy,explanation,Experiment 2 (test preview),11,visible,0.0,b,2.0,a,0.0,,,2.0,2,1.0,636.1630000059668
143,21.0,easy,explanation,Experiment 2 (test preview),12,hidden,3.0,a,,a,2.0,,,1.0,1,1.0,383.9200000089477
143,21.0,easy,explanation,Experiment 2 (test preview),13,hidden,2.0,a,,a,2.0,,,1.0,1,1.0,525.5320000059728
143,21.0,easy,explanation,Experiment 2 (test preview),14,visible,0.0,a,2.0,b,2.0,,,2.0,1,0.0,820.8510000059614
143,21.0,easy,explanation,Experiment 2 (test preview),15,visible,0.0,a,2.0,a,0.0,,,2.0,2,1.0,1827.424000008934
143,21.0,easy,explanation,Experiment 2 (test preview),16,hidden,2.0,b,,b,2.0,,,2.0,1,0.0,609.038000011933
143,21.0,easy,explanation,Experiment 2 (test preview),17,visible,2.0,a,0.0,a,2.0,,,1.0,1,1.0,1320.9560000029742
143,21.0,easy,explanation,Experiment 2 (test preview),18,visible,3.0,a,0.0,a,2.0,,,1.0,2,0.0,440.12800000596326
143,21.0,easy,explanation,Experiment 2 (test preview),19,hidden,0.0,b,,a,0.0,,,2.0,1,0.0,1011.1880000059608
143,21.0,easy,explanation,Experiment 2 (test preview),20,visible,2.0,a,0.0,b,2.0,,,1.0,1,1.0,550.7950000029814
148,21.0,easy,explanation,Experiment 2 (test preview),1,visible,2.0,a,0.0,b,2.0,,,1.0,1,1.0,2929.8180000000284
148,21.0,easy,explanation,Experiment 2 (test preview),2,hidden,3.0,a,,a,2.0,,,1.0,1,1.0,3723.7040000357674
148,21.0,easy,explanation,Experiment 2 (test preview),3,visible,0.0,b,2.0,b,2.0,,,2.0,2,1.0,1071.1160000238451
148,21.0,easy,explanation,Experiment 2 (test preview),4,hidden,2.0,a,,a,2.0,,,1.0,1,1.0,1315.8790000000154
148,21.0,easy,explanation,Experiment 2 (test preview),5,visible,2.0,a,0.0,a,2.0,,,1.0,1,1.0,1163.7350000238512
148,21.0,easy,explanation,Experiment 2 (test preview),6,visible,0.0,a,2.0,a,0.0,,,2.0,1,0.0,1544.3680000357565
148,21.0,easy,explanation,Experiment 2 (test preview),7,hidden,0.0,b,,a,0.0,,,2.0,1,0.0,3057.079000000027
148,21.0,easy,explanation,Experiment 2 (test preview),8,visible,0.0,a,2.0,b,2.0,,,2.0,2,1.0,2310.366000023845
148,21.0,easy,explanation,Experiment 2 (test preview),9,visible,3.0,a,0.0,a,2.0,,,1.0,1,1.0,765.4830000000075
148,21.0,easy,explanation,Experiment 2 (test preview),10,hidden,0.0,a,,a,3.0,,,2.0,1,0.0,1177.532000035746
148,21.0,easy,explanation,Experiment 2 (test preview),11,hidden,0.0,a,,a,0.0,,,2.0,1,0.0,1181.6009999880916
148,21.0,easy,explanation,Experiment 2 (test preview),12,visible,0.0,b,2.0,a,0.0,,,2.0,2,1.0,4913.248999988078
148,21.0,easy,explanation,Experiment 2 (test preview),13,visible,0.0,b,2.0,a,3.0,,,2.0,2,1.0,1601.1730000000098
148,21.0,easy,explanation,Experiment 2 (test preview),14,hidden,3.0,b,,a,0.0,,,2.0,2,1.0,1023.9100000238396
148,21.0,easy,explanation,Experiment 2 (test preview),15,hidden,0.0,b,,b,2.0,,,2.0,2,1.0,722.6460000000079
148,21.0,easy,explanation,Experiment 2 (test preview),16,visible,3.0,a,1.0,a,0.0,,,1.0,1,1.0,502.62900003575487
148,21.0,easy,explanation,Experiment 2 (test preview),17,hidden,3.0,a,,b,2.0,,,1.0,2,0.0,1253.4409999999916
148,21.0,easy,explanation,Experiment 2 (test preview),18,visible,3.0,a,1.0,b,0.0,,,1.0,2,0.0,618.1629999880679
148,21.0,easy,explanation,Experiment 2 (test preview),19,hidden,2.0,b,,b,2.0,,,2.0,2,1.0,646.6140000000014
148,21.0,easy,explanation,Experiment 2 (test preview),20,hidden,3.0,a,,b,0.0,,,1.0,1,1.0,523.2120000119321
152,21.0,easy,explanation,Experiment 2 (test preview),1,hidden,2.0,b,,b,2.0,,,2.0,1,0.0,11418.66799997614
152,21.0,easy,explanation,Experiment 2 (test preview),2,visible,2.0,a,0.0,b,2.0,,,1.0,2,0.0,8175.327000023855
152,21.0,easy,explanation,Experiment 2 (test preview),3,visible,0.0,b,2.0,a,3.0,,,2.0,1,0.0,8124.845000023837
152,21.0,easy,explanation,Experiment 2 (test preview),4,visible,3.0,a,1.0,a,0.0,,,1.0,1,1.0,3430.054999999993
152,21.0,easy,explanation,Experiment 2 (test preview),5,hidden,2.0,a,,a,2.0,,,1.0,1,1.0,4870.254000011948
152,21.0,easy,explanation,Experiment 2 (test preview),6,hidden,3.0,a,,a,2.0,,,1.0,1,1.0,913.3939999761642
152,21.0,easy,explanation,Experiment 2 (test preview),7,hidden,3.0,a,,b,2.0,,,1.0,1,1.0,1006.9960000238498
152,21.0,easy,explanation,Experiment 2 (test preview),8,visible,0.0,b,2.0,b,2.0,,,2.0,2,1.0,1366.7769999880693
152,21.0,easy,explanation,Experiment 2 (test preview),9,visible,3.0,a,1.0,b,0.0,,,1.0,1,1.0,1251.1230000238284
152,21.0,easy,explanation,Experiment 2 (test preview),10,hidden,0.0,a,,a,0.0,,,2.0,1,0.0,1089.0819999761295
152,21.0,easy,explanation,Experiment 2 (test preview),11,visible,0.0,a,2.0,a,0.0,,,2.0,1,0.0,2446.935000023863
152,21.0,easy,explanation,Experiment 2 (test preview),12,hidden,0.0,a,,a,3.0,,,2.0,1,0.0,1060.673999976134
152,21.0,easy,explanation,Experiment 2 (test preview),13,hidden,3.0,b,,a,0.0,,,2.0,2,1.0,9159.79099997616
152,21.0,easy,explanation,Experiment 2 (test preview),14,visible,3.0,a,0.0,a,2.0,,,1.0,1,1.0,4118.972999988066
152,21.0,easy,explanation,Experiment 2 (test preview),15,hidden,3.0,a,,b,0.0,,,1.0,1,1.0,4178.50499997614
152,21.0,easy,explanation,Experiment 2 (test preview),16,visible,2.0,a,0.0,a,2.0,,,1.0,1,1.0,1229.893000023847
152,21.0,easy,explanation,Experiment 2 (test preview),17,hidden,0.0,b,,a,0.0,,,2.0,2,1.0,3195.8330000238493
152,21.0,easy,explanation,Experiment 2 (test preview),18,visible,0.0,a,2.0,b,2.0,,,2.0,2,1.0,1233.5810000119382
152,21.0,easy,explanation,Experiment 2 (test preview),19,visible,0.0,b,2.0,a,0.0,,,2.0,2,1.0,1240.7799999880954
152,21.0,easy,explanation,Experiment 2 (test preview),20,hidden,0.0,b,,b,2.0,,,2.0,2,1.0,1579.0129999881028
150,21.0,easy,explanation,Experiment 2 (test preview),1,visible,0.0,b,2.0,b,2.0,,,2.0,1,0.0,2867.539999999979
150,21.0,easy,explanation,Experiment 2 (test preview),2,visible,0.0,a,2.0,a,0.0,,,2.0,2,1.0,7465.799999999988
150,21.0,easy,explanation,Experiment 2 (test preview),3,visible,0.0,b,2.0,a,0.0,,,2.0,2,1.0,5884.200000000012
150,21.0,easy,explanation,Experiment 2 (test preview),4,visible,2.0,a,0.0,b,2.0,,,1.0,2,0.0,3461.0599999999977
150,21.0,easy,explanation,Experiment 2 (test preview),5,visible,3.0,a,1.0,b,0.0,,,1.0,1,1.0,913.2399999999908
150,21.0,easy,explanation,Experiment 2 (test preview),6,hidden,0.0,a,,a,0.0,,,2.0,2,1.0,4376.119999999995
150,21.0,easy,explanation,Experiment 2 (test preview),7,hidden,3.0,a,,b,2.0,,,1.0,2,0.0,1845.8400000000256
150,21.0,easy,explanation,Experiment 2 (test preview),8,hidden,0.0,b,,b,2.0,,,2.0,1,0.0,3550.8400000000256
150,21.0,easy,explanation,Experiment 2 (test preview),9,hidden,3.0,a,,a,2.0,,,1.0,2,0.0,3868.3800000000047
150,21.0,easy,explanation,Experiment 2 (test preview),10,hidden,3.0,a,,b,0.0,,,1.0,1,1.0,3835.200000000012
150,21.0,easy,explanation,Experiment 2 (test preview),11,hidden,2.0,b,,b,2.0,,,2.0,2,1.0,1768.2399999999907
150,21.0,easy,explanation,Experiment 2 (test preview),12,visible,3.0,a,0.0,a,2.0,,,1.0,1,1.0,611.7399999999907
150,21.0,easy,explanation,Experiment 2 (test preview),13,visible,2.0,a,0.0,a,2.0,,,1.0,1,1.0,2878.320000000007
150,21.0,easy,explanation,Experiment 2 (test preview),14,visible,0.0,a,2.0,b,2.0,,,2.0,2,1.0,2547.5599999999977
150,21.0,easy,explanation,Experiment 2 (test preview),15,hidden,0.0,a,,a,3.0,,,2.0,2,1.0,1330.2399999999907
150,21.0,easy,explanation,Experiment 2 (test preview),16,hidden,0.0,b,,a,0.0,,,2.0,2,1.0,1462.320000000007
150,21.0,easy,explanation,Experiment 2 (test preview),17,hidden,3.0,b,,a,0.0,,,2.0,2,1.0,803.5599999999977
150,21.0,easy,explanation,Experiment 2 (test preview),18,visible,0.0,b,2.0,a,3.0,,,2.0,2,1.0,689.820000000007
150,21.0,easy,explanation,Experiment 2 (test preview),19,visible,3.0,a,1.0,a,0.0,,,1.0,2,0.0,1760.539999999979
150,21.0,easy,explanation,Experiment 2 (test preview),20,hidden,2.0,a,,a,2.0,,,1.0,1,1.0,772.0999999999767
149,21.0,easy,explanation,Experiment 2 (test preview),1,hidden,2.0,b,,b,2.0,,,2.0,1,0.0,5389.401999976166
149,21.0,easy,explanation,Experiment 2 (test preview),2,visible,3.0,a,1.0,b,0.0,,,1.0,1,1.0,4388.467999982124
149,21.0,easy,explanation,Experiment 2 (test preview),3,visible,0.0,b,2.0,b,2.0,,,2.0,2,1.0,1043.09299998809
149,21.0,easy,explanation,Experiment 2 (test preview),4,hidden,0.0,b,,b,2.0,,,2.0,1,0.0,1629.7509999821195
149,21.0,easy,explanation,Experiment 2 (test preview),5,hidden,0.0,a,,a,3.0,,,2.0,2,1.0,3532.247999994026
149,21.0,easy,explanation,Experiment 2 (test preview),6,hidden,3.0,a,,b,0.0,,,1.0,2,0.0,4955.803000000014
149,21.0,easy,explanation,Experiment 2 (test preview),7,visible,2.0,a,0.0,b,2.0,,,1.0,1,1.0,2691.1389999820967
149,21.0,easy,explanation,Experiment 2 (test preview),8,visible,2.0,a,0.0,a,2.0,,,1.0,1,1.0,6182.237999982142
149,21.0,easy,explanation,Experiment 2 (test preview),9,visible,0.0,a,2.0,a,0.0,,,2.0,2,1.0,3067.369999994058
149,21.0,easy,explanation,Experiment 2 (test preview),10,visible,3.0,a,1.0,a,0.0,,,1.0,2,0.0,4007.153999999981
149,21.0,easy,explanation,Experiment 2 (test preview),11,hidden,2.0,a,,a,2.0,,,1.0,1,1.0,3774.419999982114
149,21.0,easy,explanation,Experiment 2 (test preview),12,visible,3.0,a,0.0,a,2.0,,,1.0,2,0.0,6765.518999982101
149,21.0,easy,explanation,Experiment 2 (test preview),13,hidden,3.0,b,,a,0.0,,,2.0,2,1.0,3237.955999988073
149,21.0,easy,explanation,Experiment 2 (test preview),14,visible,0.0,b,2.0,a,0.0,,,2.0,1,0.0,4895.910999976157
149,21.0,easy,explanation,Experiment 2 (test preview),15,hidden,0.0,a,,a,0.0,,,2.0,1,0.0,1156.5969999761437
149,21.0,easy,explanation,Experiment 2 (test preview),16,hidden,3.0,a,,a,2.0,,,1.0,1,1.0,6576.012999988103
149,21.0,easy,explanation,Experiment 2 (test preview),17,visible,0.0,a,2.0,b,2.0,,,2.0,2,1.0,3936.583999988099
149,21.0,easy,explanation,Experiment 2 (test preview),18,hidden,0.0,b,,a,0.0,,,2.0,2,1.0,2896.0009999761824
149,21.0,easy,explanation,Experiment 2 (test preview),19,visible,0.0,b,2.0,a,3.0,,,2.0,2,1.0,2960.0260000000126
149,21.0,easy,explanation,Experiment 2 (test preview),20,hidden,3.0,a,,b,2.0,,,1.0,1,1.0,3220.030999976152
157,21.0,easy,explanation,Experiment 2 (test preview),1,visible,3.0,a,1.0,a,0.0,,,1.0,1,1.0,7624.0
157,21.0,easy,explanation,Experiment 2 (test preview),2,hidden,0.0,b,,a,0.0,,,2.0,2,1.0,3401.0
157,21.0,easy,explanation,Experiment 2 (test preview),3,visible,0.0,b,2.0,b,2.0,,,2.0,1,0.0,3778.0
157,21.0,easy,explanation,Experiment 2 (test preview),4,hidden,0.0,a,,a,0.0,,,2.0,1,0.0,8725.0
157,21.0,easy,explanation,Experiment 2 (test preview),5,hidden,2.0,b,,b,2.0,,,2.0,1,0.0,4852.0
157,21.0,easy,explanation,Experiment 2 (test preview),6,visible,3.0,a,1.0,b,0.0,,,1.0,2,0.0,3070.0
157,21.0,easy,explanation,Experiment 2 (test preview),7,visible,0.0,b,2.0,a,3.0,,,2.0,2,1.0,891.0
157,21.0,easy,explanation,Experiment 2 (test preview),8,visible,2.0,a,0.0,a,2.0,,,1.0,1,1.0,3719.0
157,21.0,easy,explanation,Experiment 2 (test preview),9,hidden,3.0,a,,a,2.0,,,1.0,1,1.0,3945.000000000058
157,21.0,easy,explanation,Experiment 2 (test preview),10,hidden,0.0,b,,b,2.0,,,2.0,1,0.0,3246.0
157,21.0,easy,explanation,Experiment 2 (test preview),11,visible,0.0,a,2.0,b,2.0,,,2.0,2,1.0,3994.0
157,21.0,easy,explanation,Experiment 2 (test preview),12,hidden,3.0,a,,b,0.0,,,1.0,2,0.0,4320.0
157,21.0,easy,explanation,Experiment 2 (test preview),13,hidden,0.0,a,,a,3.0,,,2.0,1,0.0,3635.0
157,21.0,easy,explanation,Experiment 2 (test preview),14,visible,2.0,a,0.0,b,2.0,,,1.0,2,0.0,4869.0
157,21.0,easy,explanation,Experiment 2 (test preview),15,visible,3.0,a,0.0,a,2.0,,,1.0,1,1.0,1908.0
157,21.0,easy,explanation,Experiment 2 (test preview),16,hidden,3.0,a,,b,2.0,,,1.0,1,1.0,8418.000000000058
157,21.0,easy,explanation,Experiment 2 (test preview),17,hidden,2.0,a,,a,2.0,,,1.0,2,0.0,666.0
157,21.0,easy,explanation,Experiment 2 (test preview),18,visible,0.0,a,2.0,a,0.0,,,2.0,1,0.0,7090.000000000058
157,21.0,easy,explanation,Experiment 2 (test preview),19,visible,0.0,b,2.0,a,0.0,,,2.0,1,0.0,5927.0
157,21.0,easy,explanation,Experiment 2 (test preview),20,hidden,3.0,b,,a,0.0,,,2.0,2,1.0,763.0
154,21.0,easy,explanation,Experiment 2 (test preview),1,visible,3.0,a,1.0,a,0.0,,,1.0,1,1.0,990.745000011928
154,21.0,easy,explanation,Experiment 2 (test preview),2,visible,0.0,a,2.0,a,0.0,,,2.0,1,0.0,858.0930000357621
154,21.0,easy,explanation,Experiment 2 (test preview),3,hidden,0.0,b,,b,2.0,,,2.0,2,1.0,7180.877000035776
154,21.0,easy,explanation,Experiment 2 (test preview),4,hidden,0.0,a,,a,3.0,,,2.0,1,0.0,673.0370000357507
154,21.0,easy,explanation,Experiment 2 (test preview),5,visible,2.0,a,0.0,b,2.0,,,1.0,2,0.0,387.6359999999986
154,21.0,easy,explanation,Experiment 2 (test preview),6,visible,3.0,a,1.0,b,0.0,,,1.0,2,0.0,1861.806000035751
154,21.0,easy,explanation,Experiment 2 (test preview),7,visible,0.0,b,2.0,a,0.0,,,2.0,2,1.0,655.154000035749
154,21.0,easy,explanation,Experiment 2 (test preview),8,hidden,2.0,a,,a,2.0,,,1.0,1,1.0,570.9050000119314
154,21.0,easy,explanation,Experiment 2 (test preview),9,visible,0.0,b,2.0,b,2.0,,,2.0,2,1.0,389.8470000000089
154,21.0,easy,explanation,Experiment 2 (test preview),10,hidden,3.0,a,,a,2.0,,,1.0,1,1.0,684.210000000021
154,21.0,easy,explanation,Experiment 2 (test preview),11,visible,3.0,a,0.0,a,2.0,,,1.0,1,1.0,324.18800003576325
154,21.0,easy,explanation,Experiment 2 (test preview),12,visible,0.0,a,2.0,b,2.0,,,2.0,2,1.0,371.3150000357418
154,21.0,easy,explanation,Experiment 2 (test preview),13,hidden,0.0,b,,a,0.0,,,2.0,2,1.0,433.0090000357595
154,21.0,easy,explanation,Experiment 2 (test preview),14,hidden,0.0,a,,a,0.0,,,2.0,1,0.0,356.295999999973
154,21.0,easy,explanation,Experiment 2 (test preview),15,visible,2.0,a,0.0,a,2.0,,,1.0,1,1.0,464.7610000119312
154,21.0,easy,explanation,Experiment 2 (test preview),16,hidden,3.0,a,,b,2.0,,,1.0,2,0.0,482.1480000238517
154,21.0,easy,explanation,Experiment 2 (test preview),17,hidden,2.0,b,,b,2.0,,,2.0,2,1.0,266.6919999999809
154,21.0,easy,explanation,Experiment 2 (test preview),18,visible,0.0,b,2.0,a,3.0,,,2.0,2,1.0,737.2800000357674
154,21.0,easy,explanation,Experiment 2 (test preview),19,hidden,3.0,a,,b,0.0,,,1.0,2,0.0,4182.951000000001
154,21.0,easy,explanation,Experiment 2 (test preview),20,hidden,3.0,b,,a,0.0,,,2.0,2,1.0,504.5970000000089
159,21.0,easy,explanation,Experiment 2 (test preview),1,hidden,3.0,b,,a,0.0,,,2.0,2,1.0,9184.201
159,21.0,easy,explanation,Experiment 2 (test preview),2,visible,0.0,b,2.0,b,2.0,,,2.0,2,1.0,2604.813000000024
159,21.0,easy,explanation,Experiment 2 (test preview),3,hidden,3.0,a,,a,2.0,,,1.0,1,1.0,2056.858999998891
159,21.0,easy,explanation,Experiment 2 (test preview),4,visible,3.0,a,1.0,a,0.0,,,1.0,1,1.0,2176.380999999237
159,21.0,easy,explanation,Experiment 2 (test preview),5,visible,3.0,a,0.0,a,2.0,,,1.0,1,1.0,731.2089999988675
159,21.0,easy,explanation,Experiment 2 (test preview),6,hidden,0.0,b,,b,2.0,,,2.0,2,1.0,4519.613000000012
159,21.0,easy,explanation,Experiment 2 (test preview),7,visible,3.0,a,1.0,b,0.0,,,1.0,1,1.0,15907.07199999888
159,21.0,easy,explanation,Experiment 2 (test preview),8,visible,0.0,b,2.0,a,3.0,,,2.0,1,0.0,6793.02399999887
159,21.0,easy,explanation,Experiment 2 (test preview),9,visible,2.0,a,0.0,b,2.0,,,1.0,1,1.0,4047.8089999989024
159,21.0,easy,explanation,Experiment 2 (test preview),10,hidden,0.0,b,,a,0.0,,,2.0,2,1.0,3707.1450000000186
159,21.0,easy,explanation,Experiment 2 (test preview),11,visible,0.0,a,2.0,b,2.0,,,2.0,2,1.0,4499.910999999614
159,21.0,easy,explanation,Experiment 2 (test preview),12,visible,0.0,b,2.0,a,0.0,,,2.0,1,0.0,2122.99099999998
159,21.0,easy,explanation,Experiment 2 (test preview),13,hidden,2.0,a,,a,2.0,,,1.0,1,1.0,4026.416999999259
159,21.0,easy,explanation,Experiment 2 (test preview),14,hidden,0.0,a,,a,3.0,,,2.0,2,1.0,7936.673999999999
159,21.0,easy,explanation,Experiment 2 (test preview),15,hidden,2.0,b,,b,2.0,,,2.0,2,1.0,2746.465999998909
159,21.0,easy,explanation,Experiment 2 (test preview),16,visible,2.0,a,0.0,a,2.0,,,1.0,1,1.0,3227.183999999601
159,21.0,easy,explanation,Experiment 2 (test preview),17,hidden,3.0,a,,b,0.0,,,1.0,2,0.0,3392.347000000009
159,21.0,easy,explanation,Experiment 2 (test preview),18,visible,0.0,a,2.0,a,0.0,,,2.0,1,0.0,2592.590999998909
159,21.0,easy,explanation,Experiment 2 (test preview),19,hidden,0.0,a,,a,0.0,,,2.0,1,0.0,2339.695999999647
159,21.0,easy,explanation,Experiment 2 (test preview),20,hidden,3.0,a,,b,2.0,,,1.0,1,1.0,4908.463999998872
158,21.0,easy,explanation,Experiment 2 (test preview),1,visible,0.0,b,2.0,a,0.0,,,2.0,2,1.0,10762.109000000026
158,21.0,easy,explanation,Experiment 2 (test preview),2,visible,2.0,a,0.0,a,2.0,,,1.0,1,1.0,4327.453999999969
158,21.0,easy,explanation,Experiment 2 (test preview),3,visible,0.0,b,2.0,b,2.0,,,2.0,1,0.0,3781.771000000008
158,21.0,easy,explanation,Experiment 2 (test preview),4,hidden,0.0,b,,a,0.0,,,2.0,1,0.0,4661.361999999965
158,21.0,easy,explanation,Experiment 2 (test preview),5,hidden,0.0,a,,a,0.0,,,2.0,1,0.0,3038.435999999987
158,21.0,easy,explanation,Experiment 2 (test preview),6,hidden,0.0,a,,a,3.0,,,2.0,2,1.0,1072.619000000006
158,21.0,easy,explanation,Experiment 2 (test preview),7,hidden,0.0,b,,b,2.0,,,2.0,2,1.0,4464.910999999964
158,21.0,easy,explanation,Experiment 2 (test preview),8,visible,3.0,a,0.0,a,2.0,,,1.0,1,1.0,5090.793999999936
158,21.0,easy,explanation,Experiment 2 (test preview),9,hidden,3.0,b,,a,0.0,,,2.0,2,1.0,4106.585000000021
158,21.0,easy,explanation,Experiment 2 (test preview),10,visible,3.0,a,1.0,a,0.0,,,1.0,2,0.0,1320.4689999999828
158,21.0,easy,explanation,Experiment 2 (test preview),11,hidden,3.0,a,,b,2.0,,,1.0,1,1.0,912.7979999999516
158,21.0,easy,explanation,Experiment 2 (test preview),12,hidden,3.0,a,,b,0.0,,,1.0,1,1.0,1493.8729999999632
158,21.0,easy,explanation,Experiment 2 (test preview),13,hidden,3.0,a,,a,2.0,,,1.0,2,0.0,973.9650000000256
158,21.0,easy,explanation,Experiment 2 (test preview),14,visible,0.0,a,2.0,b,2.0,,,2.0,1,0.0,993.9310000000404
158,21.0,easy,explanation,Experiment 2 (test preview),15,visible,3.0,a,1.0,b,0.0,,,1.0,1,1.0,783.0009999999893
158,21.0,easy,explanation,Experiment 2 (test preview),16,hidden,2.0,a,,a,2.0,,,1.0,2,0.0,945.5680000000284
158,21.0,easy,explanation,Experiment 2 (test preview),17,hidden,2.0,b,,b,2.0,,,2.0,1,0.0,1688.161000000022
158,21.0,easy,explanation,Experiment 2 (test preview),18,visible,2.0,a,0.0,b,2.0,,,1.0,1,1.0,2679.2939999999944
158,21.0,easy,explanation,Experiment 2 (test preview),19,visible,0.0,b,2.0,a,3.0,,,2.0,2,1.0,2303.754000000016
158,21.0,easy,explanation,Experiment 2 (test preview),20,visible,0.0,a,2.0,a,0.0,,,2.0,2,1.0,510.9189999999944
156,21.0,easy,explanation,Experiment 2 (test preview),1,hidden,3.0,a,,b,0.0,,,1.0,1,1.0,5716.92300000001
156,21.0,easy,explanation,Experiment 2 (test preview),2,visible,0.0,b,2.0,a,0.0,,,2.0,2,1.0,1192.2249999642372
156,21.0,easy,explanation,Experiment 2 (test preview),3,visible,0.0,a,2.0,b,2.0,,,2.0,2,1.0,516.8329999880807
156,21.0,easy,explanation,Experiment 2 (test preview),4,visible,2.0,a,0.0,b,2.0,,,1.0,1,1.0,917.2849999880708
156,21.0,easy,explanation,Experiment 2 (test preview),5,hidden,0.0,b,,b,2.0,,,2.0,2,1.0,1460.4840000119293
156,21.0,easy,explanation,Experiment 2 (test preview),6,hidden,0.0,a,,a,3.0,,,2.0,2,1.0,898.9920000119309
156,21.0,easy,explanation,Experiment 2 (test preview),7,visible,2.0,a,0.0,a,2.0,,,1.0,2,0.0,501.76500001191744
156,21.0,easy,explanation,Experiment 2 (test preview),8,hidden,0.0,b,,a,0.0,,,2.0,1,0.0,3107.4709999999905
156,21.0,easy,explanation,Experiment 2 (test preview),9,hidden,2.0,a,,a,2.0,,,1.0,1,1.0,584.944999976171
156,21.0,easy,explanation,Experiment 2 (test preview),10,hidden,0.0,a,,a,0.0,,,2.0,1,0.0,499.9719999880763
156,21.0,easy,explanation,Experiment 2 (test preview),11,visible,3.0,a,1.0,a,0.0,,,1.0,2,0.0,637.3679999761516
156,21.0,easy,explanation,Experiment 2 (test preview),12,hidden,3.0,a,,a,2.0,,,1.0,2,0.0,513.5690000119212
156,21.0,easy,explanation,Experiment 2 (test preview),13,visible,0.0,b,2.0,b,2.0,,,2.0,2,1.0,672.1320000119158
156,21.0,easy,explanation,Experiment 2 (test preview),14,hidden,3.0,b,,a,0.0,,,2.0,1,0.0,1199.6809999761754
156,21.0,easy,explanation,Experiment 2 (test preview),15,visible,0.0,a,2.0,a,0.0,,,2.0,1,0.0,498.4270000118995
156,21.0,easy,explanation,Experiment 2 (test preview),16,visible,3.0,a,0.0,a,2.0,,,1.0,1,1.0,516.0000000119326
156,21.0,easy,explanation,Experiment 2 (test preview),17,hidden,3.0,a,,b,2.0,,,1.0,1,1.0,561.5209999761428
156,21.0,easy,explanation,Experiment 2 (test preview),18,visible,3.0,a,1.0,b,0.0,,,1.0,1,1.0,349.72299999999814
156,21.0,easy,explanation,Experiment 2 (test preview),19,hidden,2.0,b,,b,2.0,,,2.0,2,1.0,799.6919999999809
156,21.0,easy,explanation,Experiment 2 (test preview),20,visible,0.0,b,2.0,a,3.0,,,2.0,2,1.0,507.7519999761717
160,21.0,easy,explanation,Experiment 2 (test preview),1,visible,0.0,b,2.0,b,2.0,,,2.0,1,0.0,9789.631999994046
160,21.0,easy,explanation,Experiment 2 (test preview),2,visible,3.0,a,1.0,a,0.0,,,1.0,2,0.0,1264.2379999880795
160,21.0,easy,explanation,Experiment 2 (test preview),3,hidden,0.0,a,,a,3.0,,,2.0,2,1.0,1539.9899999880872
160,21.0,easy,explanation,Experiment 2 (test preview),4,hidden,3.0,b,,a,0.0,,,2.0,1,0.0,5922.048999994062
160,21.0,easy,explanation,Experiment 2 (test preview),5,visible,2.0,a,0.0,b,2.0,,,1.0,2,0.0,1093.5139999940293
160,21.0,easy,explanation,Experiment 2 (test preview),6,visible,0.0,a,2.0,a,0.0,,,2.0,1,0.0,2151.6450000000186
160,21.0,easy,explanation,Experiment 2 (test preview),7,visible,3.0,a,0.0,a,2.0,,,1.0,2,0.0,704.9179999940679
160,21.0,easy,explanation,Experiment 2 (test preview),8,hidden,3.0,a,,b,0.0,,,1.0,1,1.0,1391.8679999940214
160,21.0,easy,explanation,Experiment 2 (test preview),9,visible,3.0,a,1.0,b,0.0,,,1.0,2,0.0,2186.8859999940614
160,21.0,easy,explanation,Experiment 2 (test preview),10,visible,0.0,a,2.0,b,2.0,,,2.0,1,0.0,827.3470000000088
160,21.0,easy,explanation,Experiment 2 (test preview),11,visible,2.0,a,0.0,a,2.0,,,1.0,2,0.0,3211.011999999988
160,21.0,easy,explanation,Experiment 2 (test preview),12,hidden,0.0,b,,b,2.0,,,2.0,1,0.0,1460.8740000000107
160,21.0,easy,explanation,Experiment 2 (test preview),13,visible,0.0,b,2.0,a,3.0,,,2.0,2,1.0,467.26699999999255
160,21.0,easy,explanation,Experiment 2 (test preview),14,hidden,3.0,a,,a,2.0,,,1.0,1,1.0,385.39199999999255
160,21.0,easy,explanation,Experiment 2 (test preview),15,hidden,0.0,b,,a,0.0,,,2.0,2,1.0,654.7159999761498
160,21.0,easy,explanation,Experiment 2 (test preview),16,hidden,3.0,a,,b,2.0,,,1.0,1,1.0,700.6109999761684
160,21.0,easy,explanation,Experiment 2 (test preview),17,hidden,2.0,b,,b,2.0,,,2.0,1,0.0,1375.563999976148
160,21.0,easy,explanation,Experiment 2 (test preview),18,hidden,0.0,a,,a,0.0,,,2.0,1,0.0,611.2839999761782
160,21.0,easy,explanation,Experiment 2 (test preview),19,visible,0.0,b,2.0,a,0.0,,,2.0,2,1.0,1768.1719999761551
160,21.0,easy,explanation,Experiment 2 (test preview),20,hidden,2.0,a,,a,2.0,,,1.0,1,1.0,850.2089999999735
162,22.0,hard,explanation,Experiment 2 (test preview),1,hidden,3.0,b,,a,2.0,,,2.0,1,0.0,1354.5219999523251
162,22.0,hard,explanation,Experiment 2 (test preview),2,hidden,1.0,b,,a,2.0,,,1.0,2,0.0,1103.5499999523165
162,22.0,hard,explanation,Experiment 2 (test preview),3,visible,1.0,b,3.0,a,2.0,,,1.0,2,0.0,965.4680000476656
162,22.0,hard,explanation,Experiment 2 (test preview),4,hidden,2.0,b,,b,3.0,,,1.0,1,1.0,798.6739999999991
162,22.0,hard,explanation,Experiment 2 (test preview),5,hidden,1.0,a,,a,0.0,,,2.0,1,0.0,912.3800000476768
162,22.0,hard,explanation,Experiment 2 (test preview),6,visible,0.0,a,3.0,a,0.0,,,2.0,2,1.0,1200.3909999523312
162,22.0,hard,explanation,Experiment 2 (test preview),7,visible,3.0,a,0.0,b,3.0,,,1.0,1,1.0,1780.8130000476958
162,22.0,hard,explanation,Experiment 2 (test preview),8,hidden,2.0,b,,a,1.0,,,1.0,2,0.0,943.1710000477032
162,22.0,hard,explanation,Experiment 2 (test preview),9,hidden,3.0,b,,b,3.0,,,2.0,1,0.0,777.7829999523237
162,22.0,hard,explanation,Experiment 2 (test preview),10,visible,2.0,b,1.0,b,1.0,,,1.0,1,1.0,1305.155000000028
162,22.0,hard,explanation,Experiment 2 (test preview),11,visible,3.0,b,2.0,a,2.0,,,2.0,2,1.0,2409.0949999523
162,22.0,hard,explanation,Experiment 2 (test preview),12,visible,0.0,b,3.0,b,3.0,,,2.0,1,0.0,1060.399000047706
162,22.0,hard,explanation,Experiment 2 (test preview),13,hidden,2.0,a,,b,1.0,,,2.0,2,1.0,736.9159999522963
162,22.0,hard,explanation,Experiment 2 (test preview),14,visible,3.0,a,2.0,b,1.0,,,2.0,2,1.0,480.4860000477056
162,22.0,hard,explanation,Experiment 2 (test preview),15,visible,1.0,a,0.0,a,3.0,,,1.0,1,1.0,1502.2550000476767
162,22.0,hard,explanation,Experiment 2 (test preview),16,hidden,1.0,b,,b,2.0,,,1.0,1,1.0,624.8889999522944
162,22.0,hard,explanation,Experiment 2 (test preview),17,hidden,3.0,a,,a,3.0,,,1.0,2,0.0,727.1549999761628
162,22.0,hard,explanation,Experiment 2 (test preview),18,visible,2.0,b,1.0,a,1.0,,,1.0,1,1.0,556.5339999999851
162,22.0,hard,explanation,Experiment 2 (test preview),19,visible,3.0,b,2.0,b,0.0,,,2.0,1,0.0,1649.6300000238698
162,22.0,hard,explanation,Experiment 2 (test preview),20,hidden,0.0,a,,a,0.0,,,2.0,2,1.0,688.7080000238493
163,22.0,hard,explanation,Experiment 2 (test preview),1,hidden,2.0,a,,b,1.0,,,2.0,1,0.0,1393.5659999761556
163,22.0,hard,explanation,Experiment 2 (test preview),2,hidden,1.0,b,,a,2.0,,,1.0,2,0.0,2231.655999976152
163,22.0,hard,explanation,Experiment 2 (test preview),3,visible,1.0,b,3.0,a,2.0,,,1.0,1,1.0,3742.053999976168
163,22.0,hard,explanation,Experiment 2 (test preview),4,visible,2.0,b,1.0,a,1.0,,,1.0,2,0.0,5025.415000023844
163,22.0,hard,explanation,Experiment 2 (test preview),5,hidden,3.0,b,,a,2.0,,,2.0,2,1.0,7463.056999999972
163,22.0,hard,explanation,Experiment 2 (test preview),6,visible,3.0,b,2.0,a,2.0,,,2.0,1,0.0,2791.143000023847
163,22.0,hard,explanation,Experiment 2 (test preview),7,hidden,3.0,a,,a,3.0,,,1.0,2,0.0,1622.9629999999888
163,22.0,hard,explanation,Experiment 2 (test preview),8,visible,3.0,a,2.0,b,1.0,,,2.0,2,1.0,794.2379999880795
163,22.0,hard,explanation,Experiment 2 (test preview),9,visible,2.0,b,1.0,b,1.0,,,1.0,2,0.0,3553.6119999761577
163,22.0,hard,explanation,Experiment 2 (test preview),10,hidden,1.0,b,,b,2.0,,,1.0,1,1.0,2442.8969999880646
163,22.0,hard,explanation,Experiment 2 (test preview),11,hidden,2.0,b,,a,1.0,,,1.0,1,1.0,2366.7030000238447
163,22.0,hard,explanation,Experiment 2 (test preview),12,hidden,0.0,a,,a,0.0,,,2.0,1,0.0,1631.0360000118962
163,22.0,hard,explanation,Experiment 2 (test preview),13,visible,1.0,a,0.0,a,3.0,,,1.0,2,0.0,3050.710000023828
163,22.0,hard,explanation,Experiment 2 (test preview),14,visible,0.0,a,3.0,a,0.0,,,2.0,2,1.0,376.8979999999865
163,22.0,hard,explanation,Experiment 2 (test preview),15,hidden,1.0,a,,a,0.0,,,2.0,2,1.0,760.0220000119298
163,22.0,hard,explanation,Experiment 2 (test preview),16,visible,3.0,b,2.0,b,0.0,,,2.0,2,1.0,2278.427999988082
163,22.0,hard,explanation,Experiment 2 (test preview),17,hidden,2.0,b,,b,3.0,,,1.0,2,0.0,834.320000000007
163,22.0,hard,explanation,Experiment 2 (test preview),18,visible,3.0,a,0.0,b,3.0,,,1.0,2,0.0,538.4959999999846
163,22.0,hard,explanation,Experiment 2 (test preview),19,hidden,3.0,b,,b,3.0,,,2.0,2,1.0,416.4920000238344
163,22.0,hard,explanation,Experiment 2 (test preview),20,visible,0.0,b,3.0,b,3.0,,,2.0,2,1.0,461.4840000238619
164,22.0,hard,explanation,Experiment 2 (test preview),1,visible,1.0,b,3.0,a,2.0,,,1.0,1,1.0,2057.1000000119093
164,22.0,hard,explanation,Experiment 2 (test preview),2,hidden,1.0,b,,a,2.0,,,1.0,1,1.0,2605.8500000357744
164,22.0,hard,explanation,Experiment 2 (test preview),3,hidden,1.0,b,,b,2.0,,,1.0,2,0.0,504.4950000119279
164,22.0,hard,explanation,Experiment 2 (test preview),4,visible,3.0,b,2.0,b,0.0,,,2.0,2,1.0,1613.28200001191
164,22.0,hard,explanation,Experiment 2 (test preview),5,hidden,1.0,a,,a,0.0,,,2.0,1,0.0,823.849000035756
164,22.0,hard,explanation,Experiment 2 (test preview),6,visible,0.0,a,3.0,a,0.0,,,2.0,2,1.0,805.7430000476888
164,22.0,hard,explanation,Experiment 2 (test preview),7,hidden,2.0,b,,b,3.0,,,1.0,2,0.0,154.2690000119328
164,22.0,hard,explanation,Experiment 2 (test preview),8,visible,3.0,a,0.0,b,3.0,,,1.0,1,1.0,386.41500000000815
164,22.0,hard,explanation,Experiment 2 (test preview),9,visible,3.0,b,2.0,a,2.0,,,2.0,2,1.0,445.6359999999986
164,22.0,hard,explanation,Experiment 2 (test preview),10,visible,0.0,b,3.0,b,3.0,,,2.0,1,0.0,280.67600003577536
164,22.0,hard,explanation,Experiment 2 (test preview),11,hidden,3.0,a,,a,3.0,,,1.0,1,1.0,2219.845000047673
164,22.0,hard,explanation,Experiment 2 (test preview),12,visible,2.0,b,1.0,b,1.0,,,1.0,2,0.0,420.1670000238519
164,22.0,hard,explanation,Experiment 2 (test preview),13,visible,1.0,a,0.0,a,3.0,,,1.0,1,1.0,659.747000000003
164,22.0,hard,explanation,Experiment 2 (test preview),14,hidden,3.0,b,,a,2.0,,,2.0,1,0.0,437.6030000357714
164,22.0,hard,explanation,Experiment 2 (test preview),15,hidden,3.0,b,,b,3.0,,,2.0,2,1.0,139.07900002383394
164,22.0,hard,explanation,Experiment 2 (test preview),16,hidden,0.0,a,,a,0.0,,,2.0,2,1.0,471.61999999999534
164,22.0,hard,explanation,Experiment 2 (test preview),17,hidden,2.0,a,,b,1.0,,,2.0,2,1.0,170.0090000476921
164,22.0,hard,explanation,Experiment 2 (test preview),18,visible,2.0,b,1.0,a,1.0,,,1.0,1,1.0,319.7120000238647
164,22.0,hard,explanation,Experiment 2 (test preview),19,visible,3.0,a,2.0,b,1.0,,,2.0,2,1.0,326.01100002386374
164,22.0,hard,explanation,Experiment 2 (test preview),20,hidden,2.0,b,,a,1.0,,,1.0,2,0.0,310.6290000238223
165,22.0,hard,explanation,Experiment 2 (test preview),1,visible,2.0,b,1.0,a,1.0,,,1.0,2,0.0,5160.304999995511
165,22.0,hard,explanation,Experiment 2 (test preview),2,hidden,2.0,b,,a,1.0,,,1.0,2,0.0,7660.435999999987
165,22.0,hard,explanation,Experiment 2 (test preview),3,visible,3.0,b,2.0,a,2.0,,,2.0,1,0.0,5345.712999994052
165,22.0,hard,explanation,Experiment 2 (test preview),4,hidden,2.0,b,,b,3.0,,,1.0,2,0.0,4356.110999999975
165,22.0,hard,explanation,Experiment 2 (test preview),5,hidden,1.0,b,,b,2.0,,,1.0,1,1.0,4310.854999994044
165,22.0,hard,explanation,Experiment 2 (test preview),6,visible,1.0,b,3.0,a,2.0,,,1.0,2,0.0,2035.236999996996
165,22.0,hard,explanation,Experiment 2 (test preview),7,hidden,3.0,a,,a,3.0,,,1.0,1,1.0,3699.533999994048
165,22.0,hard,explanation,Experiment 2 (test preview),8,visible,2.0,b,1.0,b,1.0,,,1.0,1,1.0,7064.383999994025
165,22.0,hard,explanation,Experiment 2 (test preview),9,visible,3.0,b,2.0,b,0.0,,,2.0,2,1.0,2629.25
165,22.0,hard,explanation,Experiment 2 (test preview),10,visible,0.0,b,3.0,b,3.0,,,2.0,1,0.0,2357.408999995503
165,22.0,hard,explanation,Experiment 2 (test preview),11,visible,1.0,a,0.0,a,3.0,,,1.0,2,0.0,4871.968999997014
165,22.0,hard,explanation,Experiment 2 (test preview),12,hidden,1.0,b,,a,2.0,,,1.0,2,0.0,3158.337999994052
165,22.0,hard,explanation,Experiment 2 (test preview),13,hidden,0.0,a,,a,0.0,,,2.0,1,0.0,937.3499999940396
165,22.0,hard,explanation,Experiment 2 (test preview),14,hidden,3.0,b,,b,3.0,,,2.0,1,0.0,6373.607999998494
165,22.0,hard,explanation,Experiment 2 (test preview),15,visible,3.0,a,0.0,b,3.0,,,1.0,2,0.0,4591.180999994045
165,22.0,hard,explanation,Experiment 2 (test preview),16,hidden,2.0,a,,b,1.0,,,2.0,1,0.0,4776.243999994011
165,22.0,hard,explanation,Experiment 2 (test preview),17,hidden,1.0,a,,a,0.0,,,2.0,2,1.0,2018.5260000000128
165,22.0,hard,explanation,Experiment 2 (test preview),18,visible,0.0,a,3.0,a,0.0,,,2.0,2,1.0,3658.779999994033
165,22.0,hard,explanation,Experiment 2 (test preview),19,visible,3.0,a,2.0,b,1.0,,,2.0,2,1.0,1265.6249999940628
165,22.0,hard,explanation,Experiment 2 (test preview),20,hidden,3.0,b,,a,2.0,,,2.0,2,1.0,5616.460999998497
166,22.0,hard,explanation,Experiment 2 (test preview),1,visible,3.0,b,2.0,a,2.0,,,2.0,2,1.0,7852.575000000361
166,22.0,hard,explanation,Experiment 2 (test preview),2,visible,2.0,b,1.0,b,1.0,,,1.0,1,1.0,10751.080999999656
166,22.0,hard,explanation,Experiment 2 (test preview),3,hidden,3.0,b,,b,3.0,,,2.0,1,0.0,7131.857999999251
166,22.0,hard,explanation,Experiment 2 (test preview),4,hidden,1.0,b,,b,2.0,,,1.0,2,0.0,3462.535999999265
166,22.0,hard,explanation,Experiment 2 (test preview),5,hidden,1.0,a,,a,0.0,,,2.0,2,1.0,11229.516999999993
166,22.0,hard,explanation,Experiment 2 (test preview),6,visible,0.0,b,3.0,b,3.0,,,2.0,1,0.0,7374.267999999633
166,22.0,hard,explanation,Experiment 2 (test preview),7,hidden,2.0,b,,b,3.0,,,1.0,2,0.0,4658.445999999996
166,22.0,hard,explanation,Experiment 2 (test preview),8,visible,3.0,a,2.0,b,1.0,,,2.0,2,1.0,8229.393999999622
166,22.0,hard,explanation,Experiment 2 (test preview),9,hidden,1.0,b,,a,2.0,,,1.0,2,0.0,6506.746999999974
166,22.0,hard,explanation,Experiment 2 (test preview),10,visible,1.0,a,0.0,a,3.0,,,1.0,1,1.0,4432.794999999984
166,22.0,hard,explanation,Experiment 2 (test preview),11,hidden,0.0,a,,a,0.0,,,2.0,1,0.0,3802.242000000028
166,22.0,hard,explanation,Experiment 2 (test preview),12,hidden,3.0,a,,a,3.0,,,1.0,1,1.0,820.2540000000154
166,22.0,hard,explanation,Experiment 2 (test preview),13,visible,0.0,a,3.0,a,0.0,,,2.0,2,1.0,2224.8189999996102
166,22.0,hard,explanation,Experiment 2 (test preview),14,visible,1.0,b,3.0,a,2.0,,,1.0,1,1.0,4719.130999999994
166,22.0,hard,explanation,Experiment 2 (test preview),15,hidden,2.0,a,,b,1.0,,,2.0,2,1.0,2657.418000000005
166,22.0,hard,explanation,Experiment 2 (test preview),16,visible,3.0,a,0.0,b,3.0,,,1.0,2,0.0,9346.629000000015
166,22.0,hard,explanation,Experiment 2 (test preview),17,visible,3.0,b,2.0,b,0.0,,,2.0,2,1.0,11599.302999999609
166,22.0,hard,explanation,Experiment 2 (test preview),18,hidden,3.0,b,,a,2.0,,,2.0,2,1.0,1664.9230000000098
166,22.0,hard,explanation,Experiment 2 (test preview),19,visible,2.0,b,1.0,a,1.0,,,1.0,1,1.0,1304.2679999999818
166,22.0,hard,explanation,Experiment 2 (test preview),20,hidden,2.0,b,,a,1.0,,,1.0,1,1.0,5112.4460000003455
167,22.0,hard,explanation,Experiment 2 (test preview),1,visible,1.0,b,3.0,a,2.0,,,1.0,1,1.0,4325.0
167,22.0,hard,explanation,Experiment 2 (test preview),2,visible,0.0,a,3.0,a,0.0,,,2.0,1,0.0,7994.0
167,22.0,hard,explanation,Experiment 2 (test preview),3,hidden,3.0,b,,a,2.0,,,2.0,1,0.0,6925.0
167,22.0,hard,explanation,Experiment 2 (test preview),4,hidden,3.0,a,,a,3.0,,,1.0,2,0.0,1313.0
167,22.0,hard,explanation,Experiment 2 (test preview),5,hidden,0.0,a,,a,0.0,,,2.0,1,0.0,1542.000000000029
167,22.0,hard,explanation,Experiment 2 (test preview),6,hidden,3.0,b,,b,3.0,,,2.0,1,0.0,1026.0
167,22.0,hard,explanation,Experiment 2 (test preview),7,visible,0.0,b,3.0,b,3.0,,,2.0,1,0.0,1428.0
167,22.0,hard,explanation,Experiment 2 (test preview),8,hidden,2.0,b,,a,1.0,,,1.0,2,0.0,2292.0
167,22.0,hard,explanation,Experiment 2 (test preview),9,visible,3.0,b,2.0,a,2.0,,,2.0,1,0.0,330.0
167,22.0,hard,explanation,Experiment 2 (test preview),10,hidden,2.0,b,,b,3.0,,,1.0,1,1.0,731.0
167,22.0,hard,explanation,Experiment 2 (test preview),11,visible,2.0,b,1.0,b,1.0,,,1.0,1,1.0,201.0
167,22.0,hard,explanation,Experiment 2 (test preview),12,visible,3.0,b,2.0,b,0.0,,,2.0,2,1.0,1862.0
167,22.0,hard,explanation,Experiment 2 (test preview),13,hidden,1.0,a,,a,0.0,,,2.0,1,0.0,642.0
167,22.0,hard,explanation,Experiment 2 (test preview),14,visible,2.0,b,1.0,a,1.0,,,1.0,1,1.0,256.0
167,22.0,hard,explanation,Experiment 2 (test preview),15,hidden,2.0,a,,b,1.0,,,2.0,2,1.0,976.0
167,22.0,hard,explanation,Experiment 2 (test preview),16,visible,1.0,a,0.0,a,3.0,,,1.0,1,1.0,783.0
167,22.0,hard,explanation,Experiment 2 (test preview),17,hidden,1.0,b,,b,2.0,,,1.0,2,0.0,2520.0
167,22.0,hard,explanation,Experiment 2 (test preview),18,visible,3.0,a,2.0,b,1.0,,,2.0,1,0.0,401.0000000000582
167,22.0,hard,explanation,Experiment 2 (test preview),19,hidden,1.0,b,,a,2.0,,,1.0,2,0.0,1671.0
167,22.0,hard,explanation,Experiment 2 (test preview),20,visible,3.0,a,0.0,b,3.0,,,1.0,2,0.0,1366.0
172,22.0,hard,explanation,Experiment 2 (test preview),1,visible,0.0,b,3.0,b,3.0,,,2.0,2,1.0,4470.814000001468
172,22.0,hard,explanation,Experiment 2 (test preview),2,visible,1.0,b,3.0,a,2.0,,,1.0,2,0.0,16012.346000000718
172,22.0,hard,explanation,Experiment 2 (test preview),3,hidden,2.0,b,,a,1.0,,,1.0,2,0.0,6403.427999999258
172,22.0,hard,explanation,Experiment 2 (test preview),4,hidden,2.0,a,,b,1.0,,,2.0,2,1.0,7117.341000000772
172,22.0,hard,explanation,Experiment 2 (test preview),5,hidden,1.0,b,,a,2.0,,,1.0,2,0.0,6324.871000001498
172,22.0,hard,explanation,Experiment 2 (test preview),6,hidden,0.0,a,,a,0.0,,,2.0,1,0.0,2680.844999998517
172,22.0,hard,explanation,Experiment 2 (test preview),7,hidden,3.0,b,,b,3.0,,,2.0,1,0.0,2633.94799999852
